timestamp , luminance, accX, accY , accZ, accXwithG, accYwithG, accZwithG
993.010009765625, 47.46141264489563, 0.2634, -0.2289, 0.2881, 0.0051, -0.2798, 10.0913
1015.641845703125, 179.1533664570644, 0.2193, -0.0889, 0.0883, -0.0349, -0.1390, 9.8915
1029.77099609375, 179.44987076726403, -0.0758, -0.2837, -0.0168, -0.3279, -0.3322, 9.7865
1042.91796875, 181.15500947750508, -0.1419, 0.9080, 0.0544, -0.3929, 0.8606, 9.8577
1078.0419921875, 182.07508879181088, 0.1782, -0.0355, 0.0374, -0.0721, -0.0822, 9.8408
1109.70703125, 182.5949482693682, 0.0987, 0.0240, 0.0265, -0.1460, -0.0238, 9.8300
1147.58203125, 180.89037297958666, 0.1509, 0.0365, 0.0314, -0.0958, 0.0115, 9.8349
1178.951904296875, 174.1612022694327, 0.1388, 0.0449, 0.0178, -0.1031, 0.0204, 9.8215
1210.869140625, 165.94567171435386, 0.1122, 0.0198, 0.0167, -0.1254, -0.0042, 9.8204
1244.718017578125, 165.62437311015944, 0.1286, 0.0233, 0.0179, -0.1049, 0.0006, 9.8218
1279.3671875, 156.8191137714252, 0.1074, 0.0182, 0.0219, -0.1224, -0.0034, 9.8258
1311.448974609375, 156.75624653062857, 0.1138, 0.0353, 0.0248, -0.1115, 0.0147, 9.8288
1345.510009765625, 147.42494444086066, 0.0992, 0.0160, -0.0097, -0.1227, -0.0043, 9.7944
1377.360107421875, 141.49952836741488, 0.0781, 0.0275, 0.0403, -0.1405, 0.0079, 9.8445
1414.675048828125, 135.14947626132943, 0.1309, 0.0386, 0.0016, -0.0835, 0.0204, 9.8059
1445.778076171875, 141.8920140163907, 0.0420, -0.0186, 0.0095, -0.1703, -0.0370, 9.8138
1479.841796875, 124.72509303677577, 0.1078, 0.0362, 0.0212, -0.1009, 0.0195, 9.8257
1512.7890625, 118.40131631025412, 0.0762, 0.0179, 0.0237, -0.1281, 0.0027, 9.8282
1546.220947265625, 116.67222870206666, 0.0855, 0.0165, 0.0157, -0.1175, 0.0003, 9.8203
1578.8330078125, 124.87390724897281, 0.1111, 0.0300, 0.0303, -0.0884, 0.0144, 9.8349
1610.98583984375, 91.31239640810935, 0.0523, 0.0038, 0.0319, -0.1441, -0.0111, 9.8366
1647.06201171875, 24.64981316734399, 0.0948, 0.0446, 0.0407, -0.0983, 0.0308, 9.8454
1677.81396484375, 31.239311240801108, 0.0797, 0.0036, 0.0271, -0.1107, -0.0094, 9.8319
1710.898193359375, 35.99355719181673, 0.0786, 0.0134, 0.0190, -0.1092, 0.0007, 9.8239
1744.483154296875, 37.678066906126624, 0.0694, 0.0138, 0.0215, -0.1166, 0.0015, 9.8264
1778.736083984375, 44.11369557551132, 0.0528, 0.0122, 0.0267, -0.1320, 0.0000, 9.8316
1810.526123046875, 52.65160035104066, 0.0720, 0.0111, 0.0013, -0.1110, -0.0010, 9.8062
1846.801025390625, 58.35457382039432, 0.0587, 0.0239, 0.0096, -0.1238, 0.0114, 9.8146
1878.98095703125, 61.53811937142138, 0.0533, 0.0118, 0.0036, -0.1282, -0.0009, 9.8086
1911.530029296875, 64.54831642448208, 0.0684, 0.0333, 0.0030, -0.1113, 0.0205, 9.8080
1947.27197265625, 65.46236245715957, 0.0303, -0.0245, -0.0084, -0.1486, -0.0373, 9.7966
1980.22998046875, 66.12191754289319, 0.0540, 0.0081, 0.0332, -0.1239, -0.0052, 9.8382
2012.29296875, 66.80746613873019, 0.0722, 0.0460, 0.0336, -0.1055, 0.0316, 9.8387
2045.09521484375, 70.11593039182627, 0.0325, -0.0321, 0.0203, -0.1450, -0.0473, 9.8254
2078.60205078125, 240.4973973142956, 0.0607, 0.0263, 0.0445, -0.1149, 0.0114, 9.8496
2112.489990234375, 249.95476875917765, 0.0493, 0.0275, 0.0126, -0.1243, 0.0138, 9.8177
2145.302001953125, 246.39800217955707, 0.0520, -0.0147, 0.0270, -0.1206, -0.0281, 9.8321
2179.27490234375, 211.54044995097826, 0.0368, -0.0029, -0.0433, -0.1330, -0.0147, 9.7619
2212.7138671875, 70.87760491425814, 0.0462, 0.0252, 0.0251, -0.1209, 0.0150, 9.8303
2241.60400390625, 59.587575216306, 0.0587, -0.0104, 0.0196, -0.1062, -0.0199, 9.8249
2280.759033203125, 63.34228293878338, 0.0240, 0.0008, 0.0232, -0.1395, -0.0082, 9.8285
2311.114013671875, 63.83822646533139, 0.0578, 0.0271, 0.0334, -0.1037, 0.0192, 9.8387
2344.863037109375, 63.80786504495127, 0.0308, 0.0171, 0.0269, -0.1294, 0.0090, 9.8322
2379.397216796875, 64.77843288982511, 0.0283, -0.0020, 0.0172, -0.1314, -0.0099, 9.8225
2415.525146484375, 64.23041984486613, 0.0429, 0.0104, 0.0215, -0.1151, 0.0033, 9.8268
2445.8349609375, 65.97305960000882, 0.0271, 0.0255, 0.0474, -0.1303, 0.0183, 9.8527
2479.941162109375, 66.62506848975801, 0.0572, -0.0042, 0.0192, -0.0994, -0.0114, 9.8246
2511.76708984375, 67.56500301221946, 0.0313, -0.0005, 0.0256, -0.1235, -0.0075, 9.8310
2547.35791015625, 67.8209904326359, 0.0517, 0.0030, 0.0202, -0.1025, -0.0031, 9.8257
2580.600830078125, 67.64573564075832, 0.0174, -0.0025, 0.0199, -0.1359, -0.0085, 9.8254
2614.01513671875, 68.11705547752346, 0.0428, 0.0145, 0.0254, -0.1088, 0.0090, 9.8309
2647.799072265625, 68.35768728160424, 0.0310, -0.0049, 0.0179, -0.1196, -0.0099, 9.8234
2680.330078125, 68.95271991837507, 0.0162, -0.0010, 0.0246, -0.1335, -0.0061, 9.8301
2713.68896484375, 68.5161033387621, 0.0290, 0.0032, 0.0176, -0.1200, -0.0013, 9.8231
2749.160888671875, 68.99917598368523, 0.0253, 0.0092, 0.0115, -0.1233, 0.0048, 9.8170
2780.488037109375, 69.34560840816287, 0.0242, 0.0034, 0.0278, -0.1236, -0.0007, 9.8333
2815.387939453125, 69.48281653878266, 0.0182, 0.0029, 0.0219, -0.1285, -0.0010, 9.8274
2848.899169921875, 69.49841972245328, 0.0285, 0.0015, 0.0310, -0.1176, -0.0021, 9.8366
2881.802001953125, 69.50753394286073, 0.0346, 0.0057, 0.0237, -0.1107, 0.0022, 9.8292
2916.30810546875, 70.10031070201225, 0.0234, 0.0021, 0.0205, -0.1212, -0.0013, 9.8261
2948.057861328125, 70.09417250609197, 0.0262, -0.0045, 0.0220, -0.1178, -0.0076, 9.8276
2982.953125, 70.55207742040922, 0.0234, -0.0046, 0.0247, -0.1202, -0.0075, 9.8303
3015.332763671875, 70.55903680000156, 0.0168, 0.0031, 0.0120, -0.1258, 0.0004, 9.8176
3049.66796875, 70.28750604083228, 0.0174, 0.0046, 0.0308, -0.1246, 0.0013, 9.8364
3080.375, 70.54363403267921, 0.0220, -0.0033, 0.0335, -0.1193, -0.0066, 9.8391
3115.376220703125, 70.68910188574138, 0.0172, 0.0002, 0.0158, -0.1236, -0.0031, 9.8215
3149.69287109375, 70.3462421061244, 0.0071, -0.0061, 0.0234, -0.1329, -0.0090, 9.8291
3182.949951171875, 70.20053331423541, 0.0234, 0.0081, 0.0351, -0.1155, 0.0055, 9.8408
3216.626708984375, 70.48421615512588, 0.0203, 0.0014, 0.0206, -0.1179, -0.0006, 9.8263
3250.829833984375, 70.36185711015591, 0.0152, 0.0033, 0.0261, -0.1217, 0.0015, 9.8318
3283.27099609375, 70.57690606532329, 0.0167, -0.0028, 0.0198, -0.1191, -0.0042, 9.8255
3316.513916015625, 70.44366808973868, 0.0173, 0.0155, 0.0163, -0.1178, 0.0142, 9.8221
3350.519775390625, 70.60717516735853, 0.0140, -0.0076, 0.0232, -0.1206, -0.0088, 9.8289
3382.5849609375, 70.79320708572182, 0.0160, -0.0048, 0.0226, -0.1182, -0.0064, 9.8283
3418.296875, 70.94806085715938, 0.0122, 0.0022, 0.0308, -0.1215, 0.0010, 9.8366
3451.191162109375, 71.05325733883531, 0.0057, -0.0077, 0.0289, -0.1281, -0.0091, 9.8346
3484.74609375, 71.15258737965124, 0.0190, 0.0022, 0.0248, -0.1140, 0.0009, 9.8306
3518.160888671875, 71.23345497965506, 0.0095, 0.0005, 0.0094, -0.1232, -0.0010, 9.8152
3551.425048828125, 71.30857055517521, 0.0096, 0.0109, 0.0311, -0.1226, 0.0091, 9.8369
3583.828125, 71.32719581231444, 0.0071, 0.0015, 0.0230, -0.1245, -0.0001, 9.8288
3618.362060546875, 71.3588141959898, 0.0162, -0.0050, 0.0133, -0.1152, -0.0064, 9.8191
3651.703125, 71.36950343680932, 0.0110, 0.0039, 0.0377, -0.1199, 0.0025, 9.8435
3685.248046875, 71.37391729802964, 0.0039, -0.0055, 0.0205, -0.1264, -0.0069, 9.8263
3717.775146484375, 71.38633777150169, 0.0169, -0.0199, 0.0490, -0.1130, -0.0211, 9.8548
3751.85888671875, 71.38593164905916, 0.0109, 0.0125, 0.0004, -0.1187, 0.0117, 9.8062
3785.56591796875, 71.38639689804322, 0.0206, 0.0135, 0.0291, -0.1092, 0.0124, 9.8349
3819.006103515625, 71.38952197559347, 0.0055, 0.0083, 0.0245, -0.1240, 0.0070, 9.8303
3853.205810546875, 71.37721792661728, 0.0063, -0.0079, 0.0212, -0.1229, -0.0090, 9.8270
3886.391845703125, 71.3742659592732, 0.0062, -0.0077, 0.0341, -0.1224, -0.0088, 9.8399
3919.47509765625, 71.36329369804626, 0.0123, -0.0100, 0.0294, -0.1160, -0.0106, 9.8352
3948.070068359375, 71.36357026130936, 0.0038, 0.0052, 0.0140, -0.1246, 0.0045, 9.8198
3987.68701171875, 71.34186318376197, 0.0140, 0.0042, 0.0134, -0.1142, 0.0033, 9.8192
4019.8291015625, 71.31771507764962, 0.0078, 0.0087, 0.0239, -0.1202, 0.0076, 9.8297
4052.9501953125, 71.30456946949198, 0.0168, 0.0121, 0.0276, -0.1113, 0.0109, 9.8334
4086.97705078125, 71.29160488990104, -0.0030, -0.0113, 0.0219, -0.1314, -0.0129, 9.8277
4120.013916015625, 71.28104540418525, 0.0101, -0.0013, 0.0240, -0.1185, -0.0025, 9.8298
4152.904052734375, 71.25958710214698, -0.0010, -0.0229, 0.0227, -0.1291, -0.0239, 9.8285
4187.112060546875, 71.23851906133078, 0.0041, -0.0021, 0.0198, -0.1242, -0.0033, 9.8257
4220.919921875, 71.23451490622513, 0.0170, 0.0129, 0.0183, -0.1109, 0.0120, 9.8242
4254.956787109375, 71.21759771439363, 0.0034, -0.0078, 0.0224, -0.1246, -0.0094, 9.8282
4286.60498046875, 71.19069749397495, 0.0031, 0.0005, 0.0261, -0.1245, -0.0010, 9.8319
4320.550048828125, 71.20439851437824, -0.0009, -0.0086, 0.0074, -0.1282, -0.0096, 9.8132
4347.471923828125, 71.21530848172813, 0.0131, 0.0048, 0.0186, -0.1143, 0.0037, 9.8245
4385.89404296875, 71.2168472164266, 0.0101, 0.0011, 0.0188, -0.1173, -0.0006, 9.8246
4422.91796875, 71.21341316743927, -0.0070, -0.0097, 0.0158, -0.1345, -0.0111, 9.8216
4454.919921875, 71.20963109397039, 0.0095, 0.0004, 0.0197, -0.1176, -0.0004, 9.8255
4489.676025390625, 71.26015343683868, 0.0024, -0.0011, 0.0182, -0.1248, -0.0019, 9.8240
4521.886962890625, 71.2784542776531, 0.0017, -0.0085, 0.0111, -0.1252, -0.0093, 9.8170
4553.60595703125, 71.28534017968697, 0.0074, -0.0052, 0.0319, -0.1191, -0.0060, 9.8378
4587.6728515625, 71.2788534123434, -0.0000, -0.0066, 0.0255, -0.1263, -0.0073, 9.8313
4617.50390625, 71.30859601642925, 0.0120, -0.0010, 0.0239, -0.1140, -0.0018, 9.8297
4656.127197265625, 71.3143543837745, 0.0021, -0.0104, 0.0294, -0.1239, -0.0109, 9.8352
4691.296142578125, 71.30568088173783, 0.0100, -0.0035, 0.0212, -0.1158, -0.0043, 9.8270
4723.318115234375, 71.30921875928752, 0.0046, -0.0004, 0.0244, -0.1212, -0.0013, 9.8303
4756.490966796875, 71.304860547042, 0.0093, -0.0019, 0.0292, -0.1169, -0.0034, 9.8351
4792.870849609375, 71.30659129806267, -0.0013, -0.0018, 0.0349, -0.1270, -0.0033, 9.8408
4822.9892578125, 71.29767237562069, -0.0067, -0.0111, 0.0361, -0.1321, -0.0124, 9.8420
4856.5908203125, 71.31108398377431, 0.0084, 0.0031, 0.0394, -0.1166, 0.0018, 9.8453
4890.633056640625, 71.2910575511301, -0.0019, 0.0017, 0.0367, -0.1269, 0.0001, 9.8426
4925.122802734375, 71.28366983684076, -0.0159, -0.0092, 0.0430, -0.1405, -0.0106, 9.8488
4957.60205078125, 71.27335075929753, 0.0068, 0.0058, 0.0310, -0.1178, 0.0048, 9.8369
4989.764892578125, 71.2824901470427, 0.0085, 0.0028, 0.0472, -0.1158, 0.0018, 9.8530
5026.645751953125, 71.27629520827044, -0.0013, -0.0042, 0.0328, -0.1258, -0.0055, 9.8387
5056.154052734375, 71.2683650939842, 0.0021, 0.0067, 0.0389, -0.1224, 0.0054, 9.8448
5093.9208984375, 71.26060526540803, 0.0014, -0.0122, 0.0419, -0.1233, -0.0135, 9.8478
5123.56884765625, 71.26166800826729, -0.0024, -0.0087, 0.0512, -0.1270, -0.0102, 9.8571
5159.4970703125, 71.25467497153716, 0.0040, -0.0032, 0.0446, -0.1200, -0.0043, 9.8505
5192.519775390625, 71.24860960010587, 0.0059, 0.0003, 0.0419, -0.1182, -0.0013, 9.8478
5225.44677734375, 71.25162680010625, 0.0026, 0.0022, 0.0446, -0.1212, 0.0009, 9.8505
5258.794921875, 71.24374044908974, 0.0064, -0.0013, 0.0545, -0.1175, -0.0027, 9.8604
5292.012939453125, 71.24798493888213, 0.0093, 0.0080, 0.0515, -0.1143, 0.0066, 9.8574
5328.0078125, 71.2478069225558, -0.0019, -0.0018, 0.0448, -0.1258, -0.0033, 9.8506
5359.27197265625, 71.24584883276268, -0.0082, -0.0095, 0.0348, -0.1321, -0.0112, 9.8406
5395.0322265625, 71.24360383684768, 0.0012, 0.0080, 0.0461, -0.1232, 0.0064, 9.8520
5424.44189453125, 71.23852686541592, -0.0043, -0.0057, 0.0457, -0.1288, -0.0072, 9.8515
5461.035888671875, 71.23814829398754, 0.0072, -0.0090, 0.0515, -0.1172, -0.0102, 9.8574
5494.424072265625, 71.24143731439534, 0.0029, -0.0052, 0.0443, -0.1220, -0.0058, 9.8502
5527.06494140625, 71.24612398378339, 0.0004, -0.0019, 0.0535, -0.1246, -0.0027, 9.8593
5561.8740234375, 71.23345531439567, 0.0085, -0.0009, 0.0520, -0.1169, -0.0016, 9.8578
5593.671875, 71.22998956745101, 0.0038, 0.0089, 0.0431, -0.1214, 0.0079, 9.8490
5627.762939453125, 71.22516039195114, 0.0151, -0.0020, 0.0457, -0.1097, -0.0028, 9.8515
5661.868896484375, 71.22056919194667, -0.0016, -0.0063, 0.0508, -0.1260, -0.0070, 9.8566
5692.137939453125, 71.20340623683875, -0.0022, -0.0040, 0.0451, -0.1266, -0.0043, 9.8509
5729.90185546875, 71.1701799266349, 0.0047, -0.0011, 0.0363, -0.1196, -0.0018, 9.8421
5759.522216796875, 71.16920823683448, 0.0068, -0.0029, 0.0554, -0.1175, -0.0031, 9.8613
5798.2119140625, 71.16662290622895, -0.0014, -0.0011, 0.0454, -0.1254, -0.0013, 9.8512
5827.2822265625, 71.16021511031016, 0.0046, -0.0013, 0.0431, -0.1191, -0.0015, 9.8490
5863.388916015625, 71.14474322459591, 0.0086, -0.0068, 0.0557, -0.1151, -0.0070, 9.8616
5896.087890625, 71.10588705316202, -0.0042, -0.0053, 0.0497, -0.1279, -0.0052, 9.8556
5926.81396484375, 71.10135362459286, 0.0062, -0.0007, 0.0439, -0.1176, -0.0007, 9.8497
5965.48095703125, 71.10299381235083, 0.0020, -0.0047, 0.0469, -0.1217, -0.0049, 9.8527
5992.31689453125, 71.03885190213698, -0.0051, 0.0002, 0.0376, -0.1284, -0.0001, 9.8435
6033.173095703125, 71.03519780417962, -0.0006, 0.0098, 0.0472, -0.1236, 0.0094, 9.8530
6059.950927734375, 71.03271002459051, -0.0022, -0.0026, 0.0415, -0.1252, -0.0031, 9.8474
6100.387939453125, 71.02712404091744, -0.0026, -0.0037, 0.0395, -0.1254, -0.0043, 9.8454
6129.0400390625, 71.03385373071207, -0.0012, -0.0078, 0.0454, -0.1238, -0.0087, 9.8512
6162.580078125, 71.03381708581294, 0.0067, 0.0045, 0.0530, -0.1160, 0.0039, 9.8589
6199.078125, 71.02893732255237, 0.0038, 0.0021, 0.0485, -0.1187, 0.0015, 9.8544
6229.923828125, 71.02480744499931, 0.0044, 0.0040, 0.0382, -0.1181, 0.0036, 9.8441
6265.380126953125, 71.02923934704165, -0.0026, 0.0057, 0.0302, -0.1249, 0.0052, 9.8361
6294.8759765625, 71.03423466132098, -0.0022, -0.0065, 0.0470, -0.1243, -0.0073, 9.8529
6332.159912109375, 71.03114390213953, -0.0004, 0.0034, 0.0434, -0.1226, 0.0025, 9.8493
6362.447021484375, 71.02397024499781, 0.0082, 0.0014, 0.0445, -0.1142, 0.0007, 9.8503
6398.4609375, 71.04216817969292, -0.0020, -0.0062, 0.0406, -0.1245, -0.0069, 9.8465
6432.176025390625, 71.03853396744242, -0.0052, -0.0011, 0.0320, -0.1278, -0.0021, 9.8379
6464.533935546875, 71.05040522458513, -0.0069, -0.0054, 0.0455, -0.1293, -0.0061, 9.8514
6499.941162109375, 71.0483070613227, 0.0035, 0.0016, 0.0464, -0.1191, 0.0003, 9.8523
6531.719970703125, 71.11378162459167, 0.0037, 0.0020, 0.0425, -0.1193, 0.0004, 9.8484
6565.1318359375, 71.10397746132759, 0.0014, -0.0129, 0.0395, -0.1217, -0.0147, 9.8454
6599.0048828125, 71.10785937152835, 0.0015, -0.0005, 0.0587, -0.1218, -0.0021, 9.8646
6632.9140625, 71.11885266132435, 0.0073, 0.0134, 0.0433, -0.1161, 0.0118, 9.8491
6665.218017578125, 71.09589458785497, -0.0008, -0.0053, 0.0479, -0.1240, -0.0070, 9.8538
6699.072021484375, 71.08983551030865, -0.0022, 0.0040, 0.0515, -0.1254, 0.0021, 9.8574
6732.3681640625, 71.08142909397797, 0.0097, 0.0085, 0.0531, -0.1134, 0.0067, 9.8590
6768.590087890625, 71.09315110214241, 0.0016, -0.0080, 0.0329, -0.1217, -0.0100, 9.8388
6798.669921875, 71.10316622051538, 0.0017, 0.0086, 0.0346, -0.1214, 0.0066, 9.8405
6835.130859375, 71.0869913307144, 0.0070, 0.0036, 0.0476, -0.1161, 0.0016, 9.8535
6867.76904296875, 71.02114382051158, -0.0013, -0.0057, 0.0364, -0.1242, -0.0076, 9.8423
6898.947998046875, 71.02629705316207, 0.0075, 0.0063, 0.0335, -0.1152, 0.0048, 9.8394
6932.550048828125, 71.02068764091813, -0.0043, 0.0031, 0.0343, -0.1270, 0.0013, 9.8402
6967.697998046875, 71.02126248173573, -0.0080, 0.0122, 0.0424, -0.1308, 0.0105, 9.8483
7001.2021484375, 71.02465406540588, 0.0059, 0.0033, 0.0383, -0.1170, 0.0021, 9.8442
7035.317138671875, 71.02314296337012, 0.0065, -0.0039, 0.0479, -0.1166, -0.0052, 9.8538
7068.605224609375, 71.02167005724382, 0.0050, 0.0099, 0.0449, -0.1184, 0.0087, 9.8508
7103.41796875, 71.01954160826656, -0.0109, -0.0083, 0.0377, -0.1342, -0.0094, 9.8436
7135.267822265625, 71.02846195928633, 0.0070, -0.0003, 0.0394, -0.1164, -0.0016, 9.8453
7168.4560546875, 71.03222314296032, 0.0088, 0.0035, 0.0427, -0.1146, 0.0019, 9.8485
7202.02978515625, 71.03687440010485, 0.0030, 0.0043, 0.0421, -0.1205, 0.0027, 9.8479
7234.417236328125, 71.03299582051154, 0.0138, 0.0083, 0.0431, -0.1094, 0.0067, 9.8490
7268.791015625, 71.02086550214774, 0.0043, -0.0041, 0.0451, -0.1193, -0.0057, 9.8509
7302.2880859375, 71.02286676745265, 0.0031, -0.0061, 0.0341, -0.1203, -0.0076, 9.8400
7336.1640625, 71.01965671847029, -0.0002, 0.0001, 0.0398, -0.1233, -0.0012, 9.8457
7369.383056640625, 71.02728102051236, -0.0007, 0.0017, 0.0376, -0.1235, 0.0003, 9.8435
7403.498779296875, 71.0222199919441, 0.0056, 0.0058, 0.0370, -0.1172, 0.0040, 9.8429
7436.60400390625, 71.02394660418408, 0.0037, 0.0009, 0.0507, -0.1193, -0.0010, 9.8566
7470.056884765625, 71.02884160826662, -0.0003, 0.0021, 0.0303, -0.1235, 0.0001, 9.8361
7505.078125, 71.01623640826898, 0.0032, -0.0019, 0.0346, -0.1199, -0.0039, 9.8405
7537.27001953125, 71.01769268581765, -0.0027, 0.0106, 0.0403, -0.1260, 0.0087, 9.8462
7570.233154296875, 71.00697946132757, -0.0014, -0.0005, 0.0250, -0.1248, -0.0022, 9.8309
7605.091064453125, 71.0145869960231, 0.0035, -0.0062, 0.0316, -0.1197, -0.0081, 9.8375
7635.16796875, 71.00975676745296, 0.0087, 0.0030, 0.0419, -0.1143, 0.0015, 9.8478
7672.31201171875, 70.95478540418718, 0.0050, -0.0067, 0.0340, -0.1181, -0.0084, 9.8399
7702.6669921875, 70.95151612255381, 0.0026, 0.0031, 0.0334, -0.1205, 0.0012, 9.8393
7737.005859375, 70.95277545317187, 0.0010, 0.0039, 0.0370, -0.1220, 0.0016, 9.8429
7773.390869140625, 70.95009923276115, -0.0005, 0.0000, 0.0493, -0.1233, -0.0024, 9.8551
7804.171875, 70.95400745316934, 0.0077, -0.0077, 0.0455, -0.1151, -0.0099, 9.8514
7839.724853515625, 70.95116964908946, 0.0005, 0.0129, 0.0428, -0.1221, 0.0106, 9.8487
7870.827880859375, 70.95240750214583, 0.0057, 0.0079, 0.0466, -0.1170, 0.0057, 9.8524
7906.122802734375, 70.9467491348001, 0.0019, -0.0058, 0.0383, -0.1205, -0.0081, 9.8442
7937.658935546875, 70.95425866949464, -0.0014, -0.0018, 0.0485, -0.1233, -0.0039, 9.8544
7973.677978515625, 70.95155059602904, 0.0032, 0.0130, 0.0427, -0.1184, 0.0108, 9.8485
8006.06689453125, 70.94469919194358, -0.0031, -0.0191, 0.0406, -0.1248, -0.0212, 9.8465
8033.969970703125, 70.91642226949216, 0.0011, 0.0051, 0.0311, -0.1205, 0.0030, 9.8370
8074.671875, 70.9153918041932, -0.0013, 0.0014, 0.0443, -0.1230, -0.0010, 9.8502
8104.044189453125, 70.90400080827577, -0.0030, -0.0049, 0.0388, -0.1246, -0.0073, 9.8447
8140.340087890625, 70.9070245225594, 0.0072, 0.0061, 0.0486, -0.1146, 0.0034, 9.8545
8171.472900390625, 70.90349756745891, 0.0011, -0.0049, 0.0311, -0.1208, -0.0078, 9.8370
8207.10107421875, 70.91213413888423, 0.0065, -0.0027, 0.0430, -0.1155, -0.0060, 9.8488
8239.4990234375, 70.90189710215186, -0.0000, 0.0040, 0.0389, -0.1218, 0.0006, 9.8448
8272.77099609375, 70.90438526541776, -0.0034, -0.0047, 0.0421, -0.1252, -0.0082, 9.8480
8307.144775390625, 70.91140332256039, -0.0019, 0.0171, 0.0443, -0.1239, 0.0132, 9.8502
8340.10400390625, 70.9088964654154, -0.0061, -0.0027, 0.0389, -0.1281, -0.0066, 9.8448
8373.963134765625, 70.91315714296563, 0.0005, 0.0084, 0.0410, -0.1215, 0.0048, 9.8469
8406.8759765625, 70.90415575521364, 0.0042, -0.0077, 0.0428, -0.1178, -0.0112, 9.8487
8442.5087890625, 70.9058676001112, 0.0025, -0.0042, 0.0346, -0.1190, -0.0076, 9.8405
8476.27197265625, 70.94098123275778, -0.0035, -0.0007, 0.0421, -0.1248, -0.0042, 9.8479
8509.615234375, 70.93360224500162, 0.0008, 0.0142, 0.0407, -0.1208, 0.0108, 9.8466
8541.2861328125, 70.90300777969958, 0.0051, 0.0077, 0.0377, -0.1163, 0.0043, 9.8436
8574.802001953125, 70.90304973888487, 0.0007, -0.0099, 0.0546, -0.1208, -0.0133, 9.8605
8609.580078125, 70.9035483756219, 0.0020, 0.0029, 0.0376, -0.1196, -0.0004, 9.8435
8641.6142578125, 70.89733786133634, -0.0029, -0.0065, 0.0540, -0.1243, -0.0099, 9.8599
8678.030029296875, 70.90182039194676, 0.0006, -0.0150, 0.0347, -0.1208, -0.0184, 9.8406
8707.635986328125, 70.89907612256096, 0.0002, 0.0205, 0.0376, -0.1212, 0.0172, 9.8435
8742.221923828125, 70.89702031031176, 0.0037, 0.0043, 0.0462, -0.1172, 0.0010, 9.8521
8777.844970703125, 70.89522492256016, -0.0088, -0.0013, 0.0393, -0.1294, -0.0045, 9.8453
8808.9931640625, 70.89019822052217, 0.0047, 0.0013, 0.0355, -0.1160, -0.0015, 9.8414
8844.234130859375, 70.88681985317197, 0.0081, -0.0024, 0.0402, -0.1125, -0.0052, 9.8462
8874.099853515625, 70.88845330623371, -0.0025, -0.0002, 0.0382, -0.1232, -0.0031, 9.8441
8911.878173828125, 70.88305408174188, -0.0010, 0.0041, 0.0374, -0.1215, 0.0018, 9.8433
8941.785888671875, 70.89296265316968, 0.0042, 0.0019, 0.0443, -0.1161, -0.0004, 9.8502
8978.799072265625, 70.88976901235499, -0.0058, -0.0063, 0.0399, -0.1260, -0.0087, 9.8459
9012.989013671875, 70.89153820419384, 0.0046, 0.0067, 0.0494, -0.1155, 0.0039, 9.8553
9042.548828125, 70.89476506133572, -0.0047, -0.0086, 0.0389, -0.1248, -0.0118, 9.8448
9079.2099609375, 70.89180226133561, -0.0092, 0.0030, 0.0461, -0.1297, -0.0004, 9.8520
9109.806884765625, 70.8873796164395, -0.0022, 0.0103, 0.0489, -0.1230, 0.0069, 9.8548
9145.68115234375, 70.88893137970204, 0.0051, -0.0127, 0.0286, -0.1157, -0.0162, 9.8345
9174.530029296875, 70.8905117715353, 0.0080, 0.0083, 0.0317, -0.1128, 0.0049, 9.8376
9214.60498046875, 70.89510655521916, 0.0031, 0.0094, 0.0449, -0.1181, 0.0060, 9.8508
9241.462890625, 70.8924770531729, -0.0026, -0.0175, 0.0391, -0.1238, -0.0208, 9.8450
9282.68896484375, 70.89052555929325, -0.0044, 0.0124, 0.0382, -0.1252, 0.0093, 9.8441
9310.47607421875, 70.88994850623516, 0.0023, -0.0002, 0.0435, -0.1185, -0.0037, 9.8494
9345.6142578125, 70.87454328174266, 0.0026, 0.0053, 0.0403, -0.1184, 0.0015, 9.8462
9380.345947265625, 70.87126088990824, -0.0061, 0.0010, 0.0391, -0.1270, -0.0028, 9.8450
9411.2451171875, 70.84100968174843, 0.0070, -0.0049, 0.0349, -0.1140, -0.0087, 9.8408
9447.85302734375, 70.83598889807223, 0.0058, 0.0136, 0.0483, -0.1155, 0.0099, 9.8542
9476.441162109375, 70.83755040828268, -0.0015, -0.0139, 0.0377, -0.1232, -0.0174, 9.8436
9515.51318359375, 70.8316377633813, -0.0021, -0.0006, 0.0413, -0.1236, -0.0042, 9.8472
9545.651123046875, 70.8340229225653, 0.0052, -0.0015, 0.0449, -0.1160, -0.0048, 9.8508
9581.31494140625, 70.84642440827741, -0.0018, -0.0091, 0.0388, -0.1229, -0.0127, 9.8447
9613.073974609375, 70.83206678379277, -0.0055, -0.0057, 0.0414, -0.1261, -0.0096, 9.8474
9648.452880859375, 70.83710440828428, -0.0028, -0.0005, 0.0434, -0.1235, -0.0042, 9.8493
9678.8388671875, 70.83593697154846, 0.0030, -0.0030, 0.0446, -0.1179, -0.0067, 9.8505
9716.341064453125, 70.83485631848481, -0.0029, 0.0059, 0.0458, -0.1240, 0.0018, 9.8517
9742.89111328125, 70.8469839266511, -0.0059, -0.0094, 0.0359, -0.1267, -0.0136, 9.8418
9785.2861328125, 70.84427562460776, 0.0051, 0.0129, 0.0426, -0.1158, 0.0090, 9.8485
9812.930908203125, 70.83427058787451, 0.0010, -0.0031, 0.0423, -0.1199, -0.0070, 9.8482
9849.0830078125, 70.84003266950997, -0.0060, -0.0081, 0.0410, -0.1267, -0.0118, 9.8469
9881.237060546875, 70.83889180420039, -0.0038, 0.0056, 0.0549, -0.1245, 0.0021, 9.8608
9914.06103515625, 70.84130357562547, 0.0043, 0.0065, 0.0476, -0.1166, 0.0030, 9.8535
9949.634033203125, 70.83432266134264, 0.0085, -0.0006, 0.0355, -0.1124, -0.0043, 9.8414
9981.466064453125, 70.83875493889168, -0.0047, 0.0027, 0.0474, -0.1258, -0.0010, 9.8533
10017.218994140625, 70.83835167358889, 0.0133, 0.0074, 0.0461, -0.1079, 0.0039, 9.8520
10050.070068359375, 70.83461527359081, -0.0103, -0.0052, 0.0364, -0.1312, -0.0082, 9.8423
10081.3271484375, 70.83133822868722, -0.0064, -0.0018, 0.0450, -0.1273, -0.0049, 9.8509
10117.864990234375, 70.81836908583186, 0.0018, 0.0066, 0.0419, -0.1191, 0.0034, 9.8478
10147.032958984375, 70.8271301878713, -0.0083, -0.0035, 0.0311, -0.1294, -0.0064, 9.8370
10184.967041015625, 70.33682521630767, 0.0023, -0.0056, 0.0293, -0.1188, -0.0085, 9.8352
10214.31787109375, 70.32413441630523, 0.0040, -0.0043, 0.0385, -0.1172, -0.0073, 9.8444
10250.85302734375, 70.62218546942385, -0.0135, -0.0048, 0.0397, -0.1351, -0.0081, 9.8456
10280.369873046875, 70.6321323837093, 0.0047, 0.0044, 0.0429, -0.1167, 0.0009, 9.8488
10319.532958984375, 70.42388328978375, 0.0068, 0.0024, 0.0432, -0.1143, -0.0010, 9.8491
10350.12890625, 70.42895431019242, -0.0044, 0.0044, 0.0367, -0.1258, 0.0006, 9.8426
10383.929931640625, 70.3337971999628, -0.0031, -0.0014, 0.0392, -0.1242, -0.0051, 9.8451
10418.011962890625, 70.3390163183293, 0.0000, -0.0030, 0.0388, -0.1211, -0.0067, 9.8447
10448.3759765625, 70.66517214697613, -0.0022, 0.0009, 0.0340, -0.1235, -0.0027, 9.8399
10483.20703125, 70.66844166534473, -0.0020, 0.0046, 0.0449, -0.1233, 0.0010, 9.8508
10518.659912109375, 70.48477568160422, -0.0053, -0.0042, 0.0421, -0.1266, -0.0076, 9.8480
10551.19287109375, 70.49402537139878, -0.0034, 0.0012, 0.0392, -0.1248, -0.0022, 9.8451
10584.6787109375, 70.75153265308671, 0.0063, -0.0118, 0.0409, -0.1154, -0.0154, 9.8468
10618.037841796875, 70.85463973878878, 0.0063, 0.0046, 0.0437, -0.1158, 0.0007, 9.8496
10651.5439453125, 70.9011336980166, 0.0030, -0.0017, 0.0473, -0.1194, -0.0057, 9.8532
10684.855224609375, 70.92832173885057, -0.0020, -0.0070, 0.0398, -0.1243, -0.0109, 9.8457
10719.006103515625, 70.95019722457963, -0.0009, 0.0049, 0.0434, -0.1232, 0.0009, 9.8493
10751.294921875, 70.94881275927585, 0.0012, 0.0029, 0.0524, -0.1208, -0.0009, 9.8583
10785.028076171875, 70.9634569062117, 0.0036, -0.0029, 0.0468, -0.1184, -0.0067, 9.8527
10816.4970703125, 70.96731693070241, 0.0061, -0.0057, 0.0465, -0.1158, -0.0094, 9.8524
10853.751953125, 70.97420780417298, -0.0109, 0.0022, 0.0468, -0.1327, -0.0015, 9.8527
10885.819091796875, 70.96004343682486, 0.0039, 0.0030, 0.0445, -0.1181, -0.0010, 9.8503
10918.7958984375, 70.96497239193062, 0.0019, 0.0069, 0.0442, -0.1200, 0.0027, 9.8500
10954.27001953125, 70.97266973886474, -0.0031, 0.0087, 0.0465, -0.1249, 0.0042, 9.8524
10985.7060546875, 70.95160340417647, 0.0045, 0.0059, 0.0425, -0.1173, 0.0013, 9.8484
11020.488037109375, 70.94459506131824, 0.0020, -0.0096, 0.0391, -0.1200, -0.0138, 9.8450
11054.2138671875, 70.94523136335802, 0.0006, -0.0083, 0.0419, -0.1220, -0.0124, 9.8478
11086.09228515625, 70.94749213886682, 0.0034, 0.0074, 0.0434, -0.1191, 0.0033, 9.8493
11119.39306640625, 70.94844946131587, 0.0009, 0.0080, 0.0364, -0.1215, 0.0033, 9.8423
11153.89990234375, 70.94165275111014, 0.0021, -0.0008, 0.0434, -0.1206, -0.0057, 9.8493
11189.27490234375, 70.94939962457953, 0.0054, 0.0013, 0.0496, -0.1175, -0.0036, 9.8554
11218.14990234375, 70.95071355927892, 0.0055, 0.0026, 0.0389, -0.1172, -0.0019, 9.8448
11255.940185546875, 70.94649914295196, -0.0103, 0.0039, 0.0452, -0.1327, -0.0007, 9.8511
11287.18212890625, 70.95544017968531, 0.0028, 0.0110, 0.0380, -0.1199, 0.0063, 9.8439
11320.9140625, 70.95587534703256, 0.0028, 0.0077, 0.0504, -0.1199, 0.0031, 9.8563
11356.4169921875, 70.95139053070562, 0.0005, -0.0036, 0.0452, -0.1224, -0.0081, 9.8511
11384.4111328125, 70.96315181233713, 0.0052, 0.0127, 0.0353, -0.1175, 0.0084, 9.8412
11423.47314453125, 70.96421056335197, 0.0026, 0.0007, 0.0219, -0.1203, -0.0036, 9.8277
11452.9580078125, 70.9772312735529, -0.0035, -0.0091, 0.0325, -0.1264, -0.0133, 9.8384
11490.494873046875, 70.98220365723114, -0.0050, -0.0014, 0.0439, -0.1276, -0.0055, 9.8497
11522.475830078125, 70.99239814701981, 0.0073, 0.0041, 0.0443, -0.1149, 0.0000, 9.8502
11554.263916015625, 70.98568135518585, -0.0117, -0.0118, 0.0341, -0.1336, -0.0162, 9.8400
11591.27685546875, 70.9912975674287, 0.0081, 0.0044, 0.0430, -0.1137, -0.0003, 9.8488
11623.115966796875, 70.99387006538764, -0.0034, 0.0057, 0.0464, -0.1254, 0.0007, 9.8523
11655.536865234375, 70.99489258783846, -0.0076, 0.0010, 0.0376, -0.1297, -0.0039, 9.8435
11691.569091796875, 71.0176263184487, 0.0060, -0.0018, 0.0331, -0.1161, -0.0066, 9.8390
11722.03076171875, 71.02097888171026, 0.0017, 0.0020, 0.0418, -0.1203, -0.0028, 9.8476
11756.462890625, 71.01649076742619, -0.0031, -0.0014, 0.0394, -0.1254, -0.0061, 9.8453
11792.135009765625, 71.00759380416359, 0.0015, 0.0062, 0.0536, -0.1209, 0.0018, 9.8595
11822.6279296875, 71.0076419592648, 0.0005, -0.0135, 0.0382, -0.1218, -0.0180, 9.8441
11860.0009765625, 70.98991452253455, -0.0012, 0.0078, 0.0356, -0.1236, 0.0036, 9.8415
11887.6650390625, 70.96420177151727, 0.0075, 0.0109, 0.0458, -0.1149, 0.0067, 9.8517
11925.445068359375, 70.96681720825237, 0.0022, 0.0006, 0.0469, -0.1200, -0.0040, 9.8527
11957.0458984375, 70.96670091437402, 0.0017, 0.0045, 0.0401, -0.1209, 0.0000, 9.8460
11991.791015625, 70.96389071029415, 0.0080, 0.0064, 0.0415, -0.1143, 0.0016, 9.8474
12026.241943359375, 70.97390182865998, -0.0060, -0.0003, 0.0446, -0.1282, -0.0049, 9.8505
12058.64501953125, 70.96981706131498, 0.0030, -0.0009, 0.0364, -0.1191, -0.0054, 9.8423
12091.6279296875, 70.9677372164208, 0.0020, 0.0080, 0.0383, -0.1197, 0.0033, 9.8442
12127.321044921875, 70.96599992662202, -0.0052, -0.0015, 0.0383, -0.1269, -0.0064, 9.8442
12157.35595703125, 70.97397527355855, 0.0004, -0.0014, 0.0376, -0.1212, -0.0066, 9.8435
12192.43115234375, 70.96703461233575, 0.0026, -0.0012, 0.0385, -0.1187, -0.0066, 9.8444
12222.862060546875, 70.96380903682885, -0.0004, 0.0053, 0.0443, -0.1217, 0.0000, 9.8502
12262.0361328125, 70.96442684090943, -0.0015, 0.0050, 0.0459, -0.1227, -0.0006, 9.8518
12289.990966796875, 70.96205329805207, 0.0064, 0.0206, 0.0455, -0.1146, 0.0151, 9.8514
12328.56298828125, 70.96559235111135, -0.0009, -0.0013, 0.0424, -0.1224, -0.0070, 9.8482
12355.795166015625, 70.96558777968546, -0.0092, 0.0006, 0.0476, -0.1308, -0.0052, 9.8535
12396.588134765625, 70.95827387764328, 0.0022, 0.0057, 0.0368, -0.1193, -0.0001, 9.8427
12424.23779296875, 70.95299073478665, -0.0030, -0.0082, 0.0446, -0.1245, -0.0142, 9.8505
12461.234130859375, 70.94787912662265, 0.0007, 0.0078, 0.0322, -0.1215, 0.0015, 9.8381
12490.233154296875, 70.94769238376772, -0.0006, 0.0176, 0.0471, -0.1226, 0.0114, 9.8530
12528.676025390625, 70.95318209805235, -0.0111, -0.0060, 0.0430, -0.1326, -0.0121, 9.8488
12560.33203125, 70.9533775021344, -0.0046, -0.0023, 0.0368, -0.1260, -0.0084, 9.8427
12593.381103515625, 70.95052811437976, 0.0053, 0.0023, 0.0467, -0.1161, -0.0037, 9.8526
12629.455078125, 70.95540204091014, -0.0132, -0.0052, 0.0425, -0.1348, -0.0115, 9.8484
12659.684814453125, 70.94121944499096, 0.0032, 0.0027, 0.0358, -0.1184, -0.0036, 9.8417
12696.281982421875, 70.95050160825711, 0.0002, 0.0028, 0.0394, -0.1220, -0.0034, 9.8453
12725.35107421875, 70.93697562458534, -0.0035, 0.0045, 0.0322, -0.1258, -0.0019, 9.8381
12761.148193359375, 70.9323012245873, -0.0010, 0.0071, 0.0308, -0.1238, 0.0007, 9.8367
12796.753173828125, 70.92680270213833, 0.0028, 0.0017, 0.0467, -0.1202, -0.0046, 9.8526
12827.264892578125, 70.92648105316087, 0.0013, -0.0015, 0.0430, -0.1215, -0.0079, 9.8489
12861.004150390625, 70.9210090939769, 0.0006, 0.0052, 0.0388, -0.1223, -0.0013, 9.8447
12896.155029296875, 70.92421071030331, 0.0087, -0.0075, 0.0395, -0.1139, -0.0145, 9.8454
12927.782958984375, 70.92165186132307, 0.0011, 0.0001, 0.0473, -0.1214, -0.0067, 9.8532
12959.467041015625, 70.92234016336748, -0.0047, -0.0074, 0.0394, -0.1270, -0.0145, 9.8453
12997.81201171875, 70.91453679193934, 0.0065, 0.0048, 0.0504, -0.1158, -0.0022, 9.8563
13027.546142578125, 70.91795357560855, -0.0023, -0.0071, 0.0397, -0.1249, -0.0141, 9.8456
13064.81005859375, 70.92119342051136, -0.0022, 0.0002, 0.0385, -0.1251, -0.0067, 9.8444
13094.9560546875, 70.91789779601795, 0.0055, 0.0021, 0.0392, -0.1175, -0.0045, 9.8451
13131.5859375, 70.9151405062222, -0.0061, 0.0002, 0.0419, -0.1291, -0.0066, 9.8478
13162.053955078125, 70.91397958377301, 0.0028, 0.0092, 0.0370, -0.1200, 0.0024, 9.8429
13197.077880859375, 70.91124323275622, -0.0023, 0.0007, 0.0368, -0.1252, -0.0061, 9.8427
13230.7021484375, 70.91933619601838, -0.0020, -0.0077, 0.0377, -0.1248, -0.0147, 9.8436
13264.077880859375, 70.92045218785675, 0.0029, 0.0056, 0.0442, -0.1200, -0.0012, 9.8500
13298.10009765625, 70.91437481642788, -0.0009, 0.0039, 0.0392, -0.1242, -0.0027, 9.8451
13330.257080078125, 70.91998269397932, -0.0036, -0.0029, 0.0379, -0.1266, -0.0091, 9.8438
13364.260009765625, 70.91811808989813, -0.0035, 0.0003, 0.0448, -0.1258, -0.0060, 9.8506
13398.9970703125, 70.91864941234562, -0.0021, -0.0048, 0.0337, -0.1242, -0.0114, 9.8396
13430.054931640625, 70.9157145878592, -0.0036, -0.0079, 0.0548, -0.1257, -0.0147, 9.8607
13465.354248046875, 70.9202802776545, -0.0071, -0.0035, 0.0455, -0.1293, -0.0100, 9.8514
13496.947021484375, 70.91295982867298, 0.0020, 0.0007, 0.0359, -0.1203, -0.0058, 9.8418
13533.4169921875, 70.9064004980626, -0.0018, 0.0003, 0.0439, -0.1243, -0.0064, 9.8497
13562.3349609375, 70.91006088989965, -0.0060, -0.0131, 0.0367, -0.1284, -0.0196, 9.8426
13600.704833984375, 70.91120674295757, -0.0012, 0.0064, 0.0320, -0.1233, 0.0003, 9.8379
13632.242919921875, 70.90508025316139, 0.0015, 0.0002, 0.0376, -0.1208, -0.0061, 9.8435
13664.2490234375, 70.90019667765515, -0.0037, 0.0038, 0.0376, -0.1260, -0.0025, 9.8435
13700.777099609375, 70.90815881642925, 0.0020, 0.0028, 0.0368, -0.1205, -0.0033, 9.8427
13731.882080078125, 70.89603907764517, 0.0049, -0.0015, 0.0389, -0.1178, -0.0079, 9.8448
13766.578857421875, 70.88878675928026, -0.0029, -0.0085, 0.0308, -0.1254, -0.0148, 9.8367
13799.638916015625, 70.8827668082584, -0.0066, 0.0047, 0.0346, -0.1288, -0.0013, 9.8405
13835.427001953125, 70.88682333070905, -0.0004, 0.0056, 0.0373, -0.1227, -0.0004, 9.8432
13866.85693359375, 70.88510151846214, -0.0040, -0.0039, 0.0406, -0.1261, -0.0100, 9.8465
13899.455078125, 70.88441040825658, -0.0076, -0.0041, 0.0392, -0.1296, -0.0097, 9.8451
13933.546875, 70.88018564090822, -0.0010, -0.0034, 0.0382, -0.1232, -0.0090, 9.8441
13966.56201171875, 70.88834771437926, -0.0036, -0.0013, 0.0416, -0.1257, -0.0069, 9.8475
13997.2431640625, 70.88938502866532, 0.0033, 0.0036, 0.0341, -0.1187, -0.0019, 9.8400
14037.177978515625, 70.88289555111186, 0.0008, 0.0001, 0.0431, -0.1214, -0.0054, 9.8490
14066.248046875, 70.88404357560648, -0.0028, 0.0030, 0.0376, -0.1251, -0.0024, 9.8435
14101.14501953125, 70.88557096336567, 0.0006, 0.0082, 0.0486, -0.1215, 0.0028, 9.8545
14135.130126953125, 70.88772140417473, 0.0029, 0.0009, 0.0475, -0.1194, -0.0042, 9.8533
14168.0458984375, 70.88037756744446, 0.0029, 0.0009, 0.0430, -0.1190, -0.0042, 9.8488
14200.06103515625, 70.8878902041781, -0.0094, -0.0035, 0.0434, -0.1309, -0.0085, 9.8493
14235.02880859375, 70.88666387764823, 0.0023, 0.0070, 0.0365, -0.1196, 0.0022, 9.8424
14267.945068359375, 70.89071756744192, -0.0068, -0.0075, 0.0389, -0.1287, -0.0124, 9.8448
14299.39501953125, 70.89700258784778, -0.0011, -0.0035, 0.0370, -0.1229, -0.0084, 9.8429
14336.3798828125, 70.89804904499236, 0.0113, 0.0040, 0.0364, -0.1103, -0.0007, 9.8423
14369.26806640625, 70.90192443274513, 0.0029, 0.0035, 0.0477, -0.1188, -0.0013, 9.8536
14404.009033203125, 70.89842210621353, -0.0090, 0.0030, 0.0313, -0.1305, -0.0018, 9.8372
14434.491943359375, 70.89726384498944, 0.0032, -0.0134, 0.0364, -0.1187, -0.0180, 9.8423
14468.2138671875, 70.893224253154, -0.0008, -0.0001, 0.0343, -0.1226, -0.0043, 9.8402
14504.7939453125, 70.89717271845937, -0.0037, -0.0056, 0.0437, -0.1257, -0.0099, 9.8496
14536.530029296875, 70.88642824499611, 0.0015, -0.0031, 0.0373, -0.1200, -0.0073, 9.8432
14570.64599609375, 70.88622559193144, 0.0069, 0.0077, 0.0326, -0.1145, 0.0033, 9.8385
14602.9697265625, 70.87511575519902, -0.0060, 0.0066, 0.0418, -0.1272, 0.0018, 9.8477
14638.111083984375, 70.87546667765349, 0.0066, -0.0124, 0.0283, -0.1143, -0.0169, 9.8342
14670.968017578125, 70.87145546948554, -0.0033, -0.0035, 0.0314, -0.1243, -0.0078, 9.8373
14705.578125, 70.87054380418351, -0.0008, 0.0111, 0.0456, -0.1221, 0.0069, 9.8515
14738.54296875, 70.87793548581321, 0.0049, 0.0084, 0.0391, -0.1163, 0.0039, 9.8450
14770.7958984375, 70.8721366286688, -0.0081, -0.0031, 0.0329, -0.1294, -0.0076, 9.8388
14806.037109375, 70.86885590214375, 0.0052, 0.0034, 0.0394, -0.1160, -0.0010, 9.8453
14834.722900390625, 70.86770893071494, -0.0053, 0.0020, 0.0418, -0.1267, -0.0025, 9.8477
14873.989990234375, 70.86405202458886, -0.0026, 0.0060, 0.0335, -0.1240, 0.0018, 9.8394
14903.984130859375, 70.87471175520037, 0.0033, 0.0067, 0.0542, -0.1178, 0.0024, 9.8601
14940.219970703125, 70.86595944500019, -0.0044, -0.0035, 0.0413, -0.1257, -0.0081, 9.8472
14971.44384765625, 70.86325251438875, 0.0044, 0.0153, 0.0500, -0.1169, 0.0109, 9.8559
15005.087158203125, 70.86878360010317, -0.0012, -0.0009, 0.0338, -0.1227, -0.0051, 9.8397
15036.1630859375, 70.8686716409146, -0.0084, -0.0113, 0.0506, -0.1302, -0.0156, 9.8565
15071.734130859375, 70.8728794694902, -0.0021, 0.0154, 0.0503, -0.1238, 0.0112, 9.8562
15105.48388671875, 70.86364699601758, -0.0033, -0.0059, 0.0305, -0.1251, -0.0099, 9.8364
15137.52392578125, 70.87061120826382, 0.0018, -0.0002, 0.0483, -0.1202, -0.0039, 9.8542
15173.222900390625, 70.8671864735699, -0.0035, 0.0118, 0.0359, -0.1257, 0.0081, 9.8418
15205.3720703125, 70.87103804091572, -0.0014, -0.0071, 0.0322, -0.1236, -0.0109, 9.8381
15239.345947265625, 70.87212209805885, 0.0005, 0.0108, 0.0427, -0.1215, 0.0073, 9.8485
15273.18798828125, 70.86145386132478, -0.0062, 0.0035, 0.0431, -0.1282, 0.0001, 9.8490
15306.1279296875, 70.86507782050947, -0.0043, -0.0079, 0.0296, -0.1263, -0.0112, 9.8355
15340.927978515625, 70.87007835111858, -0.0024, -0.0022, 0.0401, -0.1249, -0.0054, 9.8460
15374.577880859375, 70.8716947021364, 0.0063, -0.0002, 0.0364, -0.1163, -0.0033, 9.8423
15408.6630859375, 70.86046333887973, -0.0011, -0.0054, 0.0421, -0.1238, -0.0087, 9.8480
15440.693115234375, 70.86026721642797, -0.0013, 0.0050, 0.0308, -0.1238, 0.0019, 9.8367
15475.069091796875, 70.85792489806012, 0.0039, -0.0054, 0.0346, -0.1188, -0.0087, 9.8405
15508.9130859375, 70.8653427021411, -0.0009, -0.0081, 0.0403, -0.1232, -0.0114, 9.8462
15541.81689453125, 70.86158128989624, 0.0067, -0.0033, 0.0271, -0.1155, -0.0064, 9.8330
15575.842041015625, 70.85628114294371, 0.0067, -0.0076, 0.0425, -0.1154, -0.0112, 9.8484
15608.7080078125, 70.85298515110446, -0.0067, 0.0118, 0.0346, -0.1288, 0.0079, 9.8405
15639.875, 70.85437036743151, -0.0037, -0.0031, 0.0290, -0.1258, -0.0069, 9.8349
15678.569091796875, 70.84896225314453, 0.0081, 0.0008, 0.0284, -0.1142, -0.0030, 9.8343
15707.214111328125, 70.85021982865756, 0.0052, 0.0075, 0.0304, -0.1170, 0.0040, 9.8363
15744.5439453125, 70.844683396003, -0.0089, -0.0011, 0.0404, -0.1311, -0.0048, 9.8463
15775.467041015625, 70.84791326539009, -0.0057, 0.0008, 0.0385, -0.1273, -0.0027, 9.8444
15810.072998046875, 70.85429215518444, -0.0115, -0.0045, 0.0314, -0.1330, -0.0081, 9.8373
15843.402099609375, 70.85586068579856, -0.0054, -0.0028, 0.0211, -0.1275, -0.0064, 9.8270
15877.303955078125, 70.84205158376011, 0.0026, 0.0147, 0.0373, -0.1191, 0.0111, 9.8432
15909.931884765625, 70.85673266130894, -0.0032, -0.0023, 0.0341, -0.1252, -0.0060, 9.8400
15943.394775390625, 70.85059761641068, 0.0040, -0.0032, 0.0316, -0.1179, -0.0067, 9.8375
15977.633056640625, 70.86122897968379, 0.0054, 0.0160, 0.0434, -0.1166, 0.0127, 9.8493
16010.514892578125, 70.86616915928366, -0.0134, -0.0109, 0.0262, -0.1351, -0.0141, 9.8321
16042.828125, 70.85779337969223, -0.0076, 0.0027, 0.0219, -0.1290, -0.0003, 9.8278
16078.242919921875, 70.86350265316531, 0.0144, 0.0018, 0.0244, -0.1073, -0.0012, 9.8303
16109.512939453125, 70.86027693071611, -0.0092, -0.0167, 0.0088, -0.1311, -0.0198, 9.8147
16146.55517578125, 70.85753697153297, 0.0042, 0.0004, 0.0277, -0.1178, -0.0024, 9.8336
16173.949951171875, 70.85263619602242, 0.0017, 0.0017, 0.0156, -0.1202, -0.0009, 9.8215
16215.166015625, 70.85779462051124, -0.0041, -0.0062, 0.0235, -0.1263, -0.0096, 9.8294
16241.1181640625, 70.85945857969357, -0.0021, -0.0022, 0.0229, -0.1238, -0.0060, 9.8288
16280.008056640625, 70.86615024499449, 0.0056, 0.0037, 0.0334, -0.1164, 0.0001, 9.8393
16311.14794921875, 70.85321752661574, 0.0025, -0.0086, 0.0232, -0.1197, -0.0120, 9.8291
16346.06396484375, 70.85868164090655, -0.0053, -0.0028, 0.0217, -0.1275, -0.0060, 9.8276
16379.390869140625, 70.8550421633697, 0.0027, -0.0009, 0.0307, -0.1191, -0.0042, 9.8366
16410.93994140625, 70.85146052255433, -0.0072, -0.0081, 0.0301, -0.1288, -0.0120, 9.8360
16447.015869140625, 70.83925479194124, -0.0051, 0.0080, 0.0361, -0.1269, 0.0042, 9.8420
16477.7509765625, 70.84156106947754, 0.0009, -0.0072, 0.0260, -0.1209, -0.0109, 9.8319
16513.1669921875, 70.83196347764435, -0.0031, -0.0032, 0.0271, -0.1251, -0.0070, 9.8330
16547.35595703125, 70.8399816898871, 0.0042, -0.0104, 0.0228, -0.1179, -0.0142, 9.8286
16579.2109375, 70.83140653886792, -0.0029, 0.0020, 0.0380, -0.1252, -0.0019, 9.8439
16614.669921875, 70.82697353478719, -0.0051, 0.0022, 0.0334, -0.1275, -0.0018, 9.8393
16643.065185546875, 70.83390267764106, 0.0056, 0.0000, 0.0370, -0.1169, -0.0039, 9.8429
16680.875, 70.82644340416905, -0.0028, -0.0119, 0.0217, -0.1252, -0.0154, 9.8276
16709.859130859375, 70.82267596743573, 0.0020, -0.0037, 0.0177, -0.1208, -0.0073, 9.8236
16748.60595703125, 70.82144129804864, 0.0025, -0.0112, 0.0310, -0.1205, -0.0150, 9.8369
16779.905029296875, 70.82267494702765, -0.0060, 0.0026, 0.0334, -0.1290, -0.0012, 9.8393
16814.5, 70.82285051437381, 0.0089, 0.0021, 0.0253, -0.1142, -0.0019, 9.8312
16847.1728515625, 70.82556185315488, 0.0002, -0.0058, 0.0240, -0.1229, -0.0099, 9.8298
16883.241943359375, 70.82332926539907, -0.0060, -0.0106, 0.0332, -0.1293, -0.0150, 9.8391
16912.12109375, 70.8263847184608, 0.0055, 0.0083, 0.0317, -0.1175, 0.0042, 9.8376
16948.59716796875, 70.82424634295349, -0.0030, -0.0041, 0.0298, -0.1261, -0.0082, 9.8357
16982.01611328125, 70.82678885723355, -0.0041, -0.0076, 0.0264, -0.1273, -0.0117, 9.8322
17014.244140625, 70.82830195927623, -0.0020, 0.0029, 0.0373, -0.1251, -0.0007, 9.8432
17048.341064453125, 70.83027569804484, -0.0060, -0.0073, 0.0403, -0.1291, -0.0112, 9.8462
17081.948974609375, 70.82639125723156, 0.0012, -0.0052, 0.0322, -0.1224, -0.0091, 9.8381
17115.633056640625, 70.82973604090613, -0.0027, -0.0036, 0.0291, -0.1261, -0.0078, 9.8349
17147.97802734375, 70.82699641641688, 0.0065, 0.0051, 0.0325, -0.1170, 0.0009, 9.8384
17182.694091796875, 70.8219280245781, 0.0017, -0.0037, 0.0340, -0.1215, -0.0084, 9.8399
17217.1552734375, 70.82158446539565, -0.0031, 0.0150, 0.0270, -0.1263, 0.0103, 9.8328
17249.60009765625, 70.81904684907069, 0.0047, -0.0047, 0.0214, -0.1188, -0.0099, 9.8273
17281.300048828125, 70.82240768988716, -0.0060, -0.0011, 0.0247, -0.1294, -0.0067, 9.8306
17317.014892578125, 70.81185592661986, 0.0039, -0.0059, 0.0250, -0.1196, -0.0112, 9.8309
17349.31396484375, 70.8102264653971, -0.0024, 0.0010, 0.0409, -0.1257, -0.0042, 9.8468
17384.05908203125, 70.81175883274379, -0.0007, 0.0038, 0.0334, -0.1240, -0.0012, 9.8393
17416.280029296875, 70.80755102866482, -0.0100, -0.0078, 0.0202, -0.1333, -0.0127, 9.8261
17452.544921875, 70.80454052252267, 0.0031, 0.0001, 0.0171, -0.1203, -0.0051, 9.8230
17483.336181640625, 70.80369588578971, 0.0005, 0.0019, 0.0247, -0.1230, -0.0033, 9.8306
17516.746826171875, 70.80991114293393, 0.0009, -0.0045, 0.0330, -0.1226, -0.0099, 9.8388
17551.005126953125, 70.7987254531366, 0.0021, 0.0095, 0.0310, -0.1214, 0.0039, 9.8369
17583.31787109375, 70.79162847354817, -0.0019, 0.0052, 0.0247, -0.1252, -0.0003, 9.8306
17617.204833984375, 70.7919380000762, -0.0020, -0.0064, 0.0262, -0.1251, -0.0118, 9.8321
17650.044189453125, 70.79677604905412, -0.0018, -0.0014, 0.0274, -0.1249, -0.0067, 9.8333
17680.4111328125, 70.79115559190896, -0.0036, 0.0035, 0.0295, -0.1270, -0.0019, 9.8354
17718.690185546875, 70.78774174701154, 0.0020, -0.0052, 0.0300, -0.1217, -0.0109, 9.8358
17749.528076171875, 70.79399071028001, -0.0028, 0.0009, 0.0258, -0.1264, -0.0049, 9.8316
17786.580078125, 70.78671871844482, 0.0100, 0.0031, 0.0316, -0.1137, -0.0024, 9.8375
17817.06103515625, 70.78541634293215, 0.0018, -0.0006, 0.0262, -0.1218, -0.0063, 9.8321
17853.6669921875, 70.7865715755914, 0.0010, 0.0001, 0.0271, -0.1224, -0.0052, 9.8330
17886.31201171875, 70.78801349395651, -0.0037, 0.0003, 0.0359, -0.1270, -0.0049, 9.8418
17920.615966796875, 70.78190913476917, 0.0034, -0.0022, 0.0291, -0.1199, -0.0075, 9.8349
17951.491943359375, 70.79030953477134, -0.0104, -0.0088, 0.0312, -0.1338, -0.0138, 9.8370
17986.80615234375, 70.78913114293543, 0.0007, 0.0081, 0.0304, -0.1227, 0.0031, 9.8363
18018.238037109375, 70.78363121640481, 0.0056, 0.0021, 0.0380, -0.1178, -0.0033, 9.8439
18055.47216796875, 70.78867738783329, -0.0084, -0.0060, 0.0343, -0.1320, -0.0114, 9.8402
18083.888916015625, 70.79033226130427, -0.0014, -0.0084, 0.0331, -0.1252, -0.0135, 9.8390
18120.525146484375, 70.78528804905714, -0.0011, 0.0063, 0.0321, -0.1249, 0.0015, 9.8379
18150.90283203125, 70.77570276742262, -0.0062, -0.0035, 0.0347, -0.1299, -0.0081, 9.8406
18188.4482421875, 70.77282495517922, 0.0044, 0.0062, 0.0350, -0.1190, 0.0019, 9.8409
18220.47802734375, 70.7636360817137, -0.0021, 0.0032, 0.0445, -0.1257, -0.0007, 9.8503
18255.119140625, 70.76418284087399, -0.0031, -0.0047, 0.0265, -0.1269, -0.0088, 9.8324
18287.60400390625, 70.76816154291895, 0.0002, -0.0032, 0.0271, -0.1238, -0.0073, 9.8330
18320.37890625, 70.75739537149188, 0.0051, -0.0104, 0.0382, -0.1191, -0.0148, 9.8441
18354.09814453125, 70.7493643919023, -0.0089, -0.0077, 0.0298, -0.1332, -0.0121, 9.8357
18388.97802734375, 70.75156080822686, -0.0010, -0.0025, 0.0229, -0.1254, -0.0070, 9.8288
18420.303955078125, 70.74952046537182, 0.0024, 0.0036, 0.0339, -0.1221, -0.0010, 9.8397
18455.373046875, 70.74865899598569, 0.0044, -0.0089, 0.0232, -0.1200, -0.0133, 9.8291
18487.200927734375, 70.74303914292258, -0.0049, -0.0180, 0.0301, -0.1294, -0.0224, 9.8360
18524.157958984375, 70.74999375516582, 0.0080, -0.0018, 0.0288, -0.1161, -0.0060, 9.8346
18553.908935546875, 70.27658794283685, -0.0077, -0.0059, 0.0265, -0.1317, -0.0100, 9.8324
18589.195068359375, 70.42433510208969, -0.0050, -0.0057, 0.0157, -0.1288, -0.0099, 9.8216
18620.5087890625, 70.61359449799187, 0.0043, 0.0140, 0.0351, -0.1197, 0.0099, 9.8409
18655.6279296875, 70.27138950199794, 0.0039, 0.0034, 0.0354, -0.1205, -0.0012, 9.8412
18690.06787109375, 70.47178259596673, -0.0028, -0.0052, 0.0282, -0.1272, -0.0091, 9.8340
18721.593994140625, 70.67693022860078, -0.0033, -0.0015, 0.0214, -0.1275, -0.0054, 9.8273
18758.012939453125, 70.33596006526409, -0.0012, -0.0026, 0.0398, -0.1252, -0.0064, 9.8457
18787.719970703125, 70.51875786126762, 0.0052, 0.0001, 0.0250, -0.1188, -0.0039, 9.8309
18824.97802734375, 70.7066252898263, -0.0001, -0.0069, 0.0226, -0.1243, -0.0109, 9.8285
18857.130859375, 70.88359203272327, 0.0043, 0.0004, 0.0452, -0.1197, -0.0034, 9.8511
18891.52783203125, 70.99953807356287, -0.0027, 0.0061, 0.0400, -0.1264, 0.0025, 9.8459
18923.35595703125, 71.13828262866674, 0.0087, -0.0060, 0.0286, -0.1152, -0.0097, 9.8345
18959.0009765625, 71.19443574704532, -0.0113, -0.0085, 0.0138, -0.1354, -0.0120, 9.8197
18988.702880859375, 71.21931057969738, 0.0060, -0.0087, 0.0327, -0.1182, -0.0123, 9.8385
19027.86083984375, 71.21056055520627, -0.0086, 0.0050, 0.0366, -0.1330, 0.0016, 9.8424
19056.377197265625, 71.19145372255912, -0.0010, -0.0066, 0.0172, -0.1254, -0.0099, 9.8231
19093.527099609375, 71.18808638378714, -0.0063, -0.0131, 0.0428, -0.1308, -0.0163, 9.8487
19124.5029296875, 71.20182091439307, -0.0013, 0.0035, 0.0334, -0.1258, 0.0006, 9.8393
19158.932861328125, 71.19763822051645, 0.0026, 0.0025, 0.0195, -0.1220, -0.0006, 9.8254
19191.705810546875, 71.19903487358015, -0.0053, -0.0089, 0.0292, -0.1300, -0.0121, 9.8351
19225.18505859375, 71.19619353480041, 0.0061, -0.0043, 0.0283, -0.1182, -0.0073, 9.8342
19258.171142578125, 71.20912497970076, -0.0018, 0.0018, 0.0321, -0.1261, -0.0015, 9.8379
19292.3681640625, 71.20568013888033, 0.0011, 0.0056, 0.0294, -0.1233, 0.0021, 9.8352
19325.5068359375, 71.20926516745388, -0.0022, -0.0038, 0.0360, -0.1272, -0.0070, 9.8418
19361.5400390625, 71.21471776337081, -0.0085, -0.0133, 0.0328, -0.1333, -0.0166, 9.8387
19391.820068359375, 71.2086477225563, 0.0063, 0.0033, 0.0318, -0.1187, 0.0004, 9.8376
19428.880859375, 71.20791785316638, 0.0036, 0.0022, 0.0277, -0.1215, -0.0009, 9.8336
19458.211181640625, 71.21025004092485, -0.0026, 0.0040, 0.0270, -0.1279, 0.0007, 9.8328
19493.55810546875, 71.20376057970077, 0.0054, -0.0053, 0.0354, -0.1196, -0.0082, 9.8412
19527.772216796875, 71.19969637562247, 0.0006, 0.0006, 0.0282, -0.1243, -0.0024, 9.8340
19556.60302734375, 71.20443968174396, 0.0015, -0.0056, 0.0238, -0.1235, -0.0085, 9.8297
19596.22119140625, 71.19364718378608, 0.0022, -0.0004, 0.0346, -0.1229, -0.0033, 9.8405
19624.59912109375, 71.20573345317065, 0.0007, -0.0017, 0.0321, -0.1243, -0.0045, 9.8379
19662.123779296875, 71.21172400011136, 0.0104, 0.0006, 0.0267, -0.1148, -0.0022, 9.8325
19694.991943359375, 71.21016535521261, 0.0080, -0.0067, 0.0174, -0.1172, -0.0094, 9.8233
19726.870849609375, 71.20879547766218, -0.0027, -0.0065, 0.0247, -0.1273, -0.0091, 9.8306
19763.35400390625, 71.20441988582289, 0.0040, -0.0013, 0.0252, -0.1203, -0.0036, 9.8310
19794.722900390625, 71.21045581235421, -0.0036, -0.0094, 0.0361, -0.1281, -0.0120, 9.8420
19826.639892578125, 71.20566794296533, 0.0071, -0.0039, 0.0348, -0.1175, -0.0063, 9.8406
19863.820068359375, 71.20769813888568, 0.0004, -0.0073, 0.0231, -0.1239, -0.0097, 9.8289
19893.386962890625, 71.20378571439451, 0.0027, -0.0028, 0.0279, -0.1215, -0.0054, 9.8337
19929.984130859375, 71.20481319194565, -0.0085, -0.0052, 0.0348, -0.1327, -0.0078, 9.8406
19959.009765625, 71.19805096337438, -0.0005, -0.0010, 0.0283, -0.1246, -0.0036, 9.8342
19999.89501953125, 71.1841550041932, 0.0057, -0.0037, 0.0214, -0.1184, -0.0064, 9.8273
20026.2939453125, 71.18172369806864, -0.0092, -0.0117, 0.0240, -0.1335, -0.0148, 9.8298
20066.083984375, 71.17737948582327, -0.0012, 0.0049, 0.0207, -0.1257, 0.0018, 9.8266
20094.77197265625, 71.17505762459677, 0.0032, -0.0002, 0.0289, -0.1215, -0.0033, 9.8348
20129.48828125, 71.17956067766217, 0.0052, 0.0022, 0.0247, -0.1197, -0.0009, 9.8306
20164.614013671875, 71.16934225317266, 0.0039, -0.0060, 0.0330, -0.1209, -0.0091, 9.8388
20195.501953125, 71.17577181235688, -0.0033, 0.0002, 0.0295, -0.1281, -0.0030, 9.8354
20231.196044921875, 71.17113917562334, -0.0049, -0.0067, 0.0325, -0.1294, -0.0099, 9.8384
20261.60107421875, 71.17096004909098, -0.0025, -0.0034, 0.0295, -0.1270, -0.0067, 9.8354
20296.6669921875, 71.17870897970045, 0.0087, -0.0011, 0.0343, -0.1158, -0.0042, 9.8402
20330.599853515625, 71.17241617970306, -0.0011, 0.0003, 0.0318, -0.1257, -0.0028, 9.8376
20363.888916015625, 71.176209812353, 0.0069, -0.0009, 0.0228, -0.1178, -0.0037, 9.8286
20397.43896484375, 71.17522774704685, -0.0022, -0.0026, 0.0340, -0.1267, -0.0055, 9.8399
20429.97802734375, 71.17864264500744, 0.0023, -0.0100, 0.0345, -0.1221, -0.0129, 9.8403
20466.258056640625, 71.17363071847748, 0.0054, 0.0088, 0.0336, -0.1188, 0.0058, 9.8394
20497.902099609375, 71.176345436845, 0.0038, -0.0024, 0.0328, -0.1208, -0.0054, 9.8387
20532.255859375, 71.18173430215144, -0.0011, -0.0195, 0.0184, -0.1257, -0.0226, 9.8243
20564.862060546875, 71.17722533072217, 0.0016, -0.0040, 0.0229, -0.1232, -0.0070, 9.8288
20599.552978515625, 71.18256977970086, -0.0011, -0.0082, 0.0268, -0.1260, -0.0114, 9.8327
20631.75, 71.1696899021531, -0.0046, -0.0032, 0.0301, -0.1294, -0.0066, 9.8360
20667.764892578125, 71.17919498786623, 0.0027, 0.0032, 0.0352, -0.1223, -0.0006, 9.8411
20699.080078125, 71.17286531439444, 0.0021, -0.0058, 0.0201, -0.1232, -0.0096, 9.8260
20732.482177734375, 71.17595077562426, -0.0095, -0.0154, 0.0250, -0.1347, -0.0193, 9.8309
20765.585205078125, 71.17467514296501, 0.0016, -0.0053, 0.0267, -0.1232, -0.0091, 9.8325
20798.074951171875, 71.17407353480625, 0.0010, -0.0008, 0.0443, -0.1235, -0.0048, 9.8502
20834.796142578125, 71.15325887357783, 0.0061, 0.0045, 0.0280, -0.1184, 0.0003, 9.8339
20866.964111328125, 71.15027162460301, 0.0010, -0.0007, 0.0210, -0.1238, -0.0049, 9.8268
20899.81103515625, 71.15422155929313, -0.0020, 0.0094, 0.0259, -0.1267, 0.0052, 9.8318
20934.34814453125, 71.15114142868114, 0.0009, -0.0001, 0.0363, -0.1238, -0.0043, 9.8421
20965.39990234375, 71.14772431031403, 0.0094, -0.0092, 0.0337, -0.1154, -0.0136, 9.8396
21002.114013671875, 71.13985852256027, -0.0012, 0.0017, 0.0237, -0.1258, -0.0027, 9.8295
21032.25, 71.13255575521487, 0.0063, 0.0011, 0.0333, -0.1182, -0.0033, 9.8391
21067.673828125, 71.13410201643572, -0.0002, -0.0025, 0.0304, -0.1248, -0.0072, 9.8363
21099.175048828125, 71.1295019837874, -0.0042, -0.0031, 0.0292, -0.1285, -0.0076, 9.8351
21133.049072265625, 71.12901768174653, 0.0067, 0.0022, 0.0352, -0.1175, -0.0021, 9.8411
21168.193115234375, 71.12847946133856, 0.0047, -0.0037, 0.0321, -0.1193, -0.0082, 9.8379
21201.492919921875, 71.13656143684997, 0.0024, 0.0007, 0.0321, -0.1217, -0.0040, 9.8379
21234.639892578125, 71.13135602460609, 0.0016, 0.0002, 0.0394, -0.1226, -0.0043, 9.8453
21265.9111328125, 71.13673835113643, -0.0069, -0.0006, 0.0370, -0.1309, -0.0052, 9.8429
21303.19091796875, 71.13841026950001, 0.0017, -0.0024, 0.0301, -0.1227, -0.0069, 9.8360
21335.788818359375, 71.1523672164416, 0.0075, 0.0042, 0.0454, -0.1170, -0.0004, 9.8512
21368.380126953125, 71.14810763276614, 0.0090, 0.0012, 0.0301, -0.1154, -0.0034, 9.8360
21404.2431640625, 71.15240180419372, 0.0045, 0.0016, 0.0340, -0.1199, -0.0030, 9.8399
21434.919921875, 71.14826733889085, 0.0089, -0.0049, 0.0276, -0.1152, -0.0094, 9.8334
21470.14404296875, 71.14827145317352, 0.0025, 0.0019, 0.0391, -0.1218, -0.0030, 9.8450
21502.947998046875, 71.15440317562602, 0.0021, -0.0005, 0.0307, -0.1223, -0.0051, 9.8366
21537.457275390625, 71.15723627766533, -0.0057, -0.0023, 0.0397, -0.1303, -0.0067, 9.8456
21569.090087890625, 71.15590880827678, 0.0136, 0.0141, 0.0286, -0.1109, 0.0099, 9.8345
21601.3759765625, 71.15619420419205, -0.0032, -0.0033, 0.0298, -0.1279, -0.0076, 9.8357
21636.86376953125, 71.1627556572552, 0.0022, -0.0007, 0.0286, -0.1223, -0.0046, 9.8345
21667.882080078125, 71.15294222868154, 0.0009, 0.0077, 0.0295, -0.1236, 0.0039, 9.8354
21706.525146484375, 71.13335827766424, 0.0003, -0.0007, 0.0247, -0.1245, -0.0046, 9.8306
21732.65283203125, 71.13256715929306, -0.0003, 0.0006, 0.0279, -0.1252, -0.0031, 9.8337
21769.934814453125, 71.13632375521225, 0.0095, 0.0030, 0.0301, -0.1158, -0.0009, 9.8360
21802.3759765625, 71.12956878378665, 0.0005, -0.0096, 0.0334, -0.1251, -0.0136, 9.8393
21838.823974609375, 71.12556902051898, 0.0021, -0.0051, 0.0451, -0.1235, -0.0091, 9.8509
21869.664794921875, 71.12110719195022, -0.0026, 0.0070, 0.0342, -0.1282, 0.0027, 9.8400
21906.032958984375, 71.11764321643517, -0.0070, -0.0048, 0.0363, -0.1327, -0.0091, 9.8421
21936.9189453125, 71.1179743919448, 0.0012, 0.0097, 0.0366, -0.1245, 0.0052, 9.8424
21972.84814453125, 71.1209381960316, 0.0016, 0.0005, 0.0358, -0.1239, -0.0037, 9.8417
22004.59912109375, 71.11383882460237, -0.0024, -0.0091, 0.0295, -0.1282, -0.0132, 9.8354
22041.32373046875, 71.11951861235346, 0.0048, 0.0036, 0.0301, -0.1209, -0.0006, 9.8360
22071.851806640625, 71.11823658786082, 0.0013, -0.0060, 0.0382, -0.1243, -0.0105, 9.8441
22105.4990234375, 71.10778820418761, 0.0029, -0.0002, 0.0379, -0.1229, -0.0051, 9.8438
22138.321044921875, 71.11209879194851, 0.0068, -0.0001, 0.0240, -0.1190, -0.0049, 9.8298
22174.2470703125, 71.11608038378506, -0.0013, -0.0016, 0.0310, -0.1273, -0.0066, 9.8369
22205.77392578125, 71.11463629398973, 0.0019, -0.0030, 0.0283, -0.1242, -0.0078, 9.8342
22238.723876953125, 71.12220760827437, 0.0130, 0.0056, 0.0354, -0.1133, 0.0009, 9.8412
22274.14208984375, 71.11968604908937, -0.0024, 0.0050, 0.0340, -0.1285, 0.0004, 9.8399
22305.5478515625, 71.11444550215235, 0.0015, 0.0002, 0.0233, -0.1248, -0.0043, 9.8291
22341.5810546875, 71.11507688990403, 0.0057, -0.0031, 0.0310, -0.1206, -0.0078, 9.8369
22372.15478515625, 71.11033564909111, 0.0032, 0.0060, 0.0342, -0.1233, 0.0015, 9.8400
22409.179931640625, 71.11571087358305, -0.0047, -0.0019, 0.0325, -0.1315, -0.0064, 9.8384
22440.3408203125, 71.11204848173922, 0.0079, 0.0008, 0.0287, -0.1188, -0.0037, 9.8345
22474.300048828125, 71.1213859837885, -0.0080, -0.0086, 0.0330, -0.1348, -0.0133, 9.8388
22508.7001953125, 71.11619782868439, 0.0080, -0.0030, 0.0343, -0.1185, -0.0078, 9.8402
22537.210205078125, 71.11488111848261, 0.0060, 0.0084, 0.0388, -0.1205, 0.0036, 9.8447
22577.348876953125, 71.12006623684687, 0.0067, 0.0017, 0.0366, -0.1200, -0.0031, 9.8424
22607.27392578125, 71.12313711848476, 0.0067, -0.0021, 0.0291, -0.1200, -0.0070, 9.8349
22642.93896484375, 71.11925162460066, -0.0058, -0.0204, 0.0282, -0.1324, -0.0251, 9.8340
22673.10400390625, 71.11704106950116, -0.0022, -0.0074, 0.0316, -0.1285, -0.0118, 9.8375
22709.09814453125, 71.12473832664605, 0.0040, 0.0028, 0.0255, -0.1224, -0.0016, 9.8313
22742.107177734375, 71.14525673480905, 0.0078, -0.0021, 0.0360, -0.1187, -0.0072, 9.8418
22777.111083984375, 71.13186016337565, -0.0025, -0.0042, 0.0242, -0.1291, -0.0090, 9.8300
22807.588134765625, 71.13566618786382, 0.0027, 0.0041, 0.0355, -0.1238, -0.0004, 9.8414
22844.1650390625, 71.13652211439212, 0.0043, 0.0075, 0.0358, -0.1218, 0.0025, 9.8417
22873.670166015625, 71.1450585878691, -0.0002, 0.0058, 0.0313, -0.1263, 0.0007, 9.8372
22910.10595703125, 71.14106151848267, 0.0036, 0.0044, 0.0354, -0.1224, -0.0007, 9.8412
22942.791259765625, 71.13318588582902, 0.0047, 0.0053, 0.0367, -0.1211, 0.0004, 9.8426
22976.64892578125, 71.15024355929931, -0.0084, -0.0169, 0.0297, -0.1339, -0.0217, 9.8355
23008.912109375, 71.14864954297398, -0.0015, 0.0001, 0.0361, -0.1269, -0.0043, 9.8420
23044.787109375, 71.16120920827579, 0.0052, 0.0039, 0.0361, -0.1205, -0.0007, 9.8420
23074.908935546875, 71.15939493072477, 0.0073, -0.0034, 0.0306, -0.1187, -0.0082, 9.8364
23108.654052734375, 71.1674988817439, 0.0026, 0.0018, 0.0243, -0.1230, -0.0030, 9.8301
23146.239013671875, 71.1754647837861, 0.0144, 0.0125, 0.0342, -0.1112, 0.0076, 9.8400
23176.4150390625, 71.1803338694974, 0.0008, -0.0119, 0.0394, -0.1243, -0.0169, 9.8453
23210.85498046875, 71.17976741235464, 0.0086, -0.0022, 0.0250, -0.1163, -0.0072, 9.8309
23244.39111328125, 71.17720724909152, 0.0136, 0.0069, 0.0315, -0.1112, 0.0022, 9.8373
23277.193115234375, 71.17339612256062, 0.0017, -0.0041, 0.0334, -0.1229, -0.0088, 9.8393
23311.325927734375, 71.18276561643464, -0.0113, -0.0052, 0.0367, -0.1356, -0.0097, 9.8426
23345.393798828125, 71.17911171439292, 0.0042, -0.0022, 0.0395, -0.1197, -0.0066, 9.8454
23378.574951171875, 71.18826798378403, 0.0062, 0.0075, 0.0301, -0.1179, 0.0033, 9.8360
23411.4501953125, 71.18296622052021, -0.0046, -0.0123, 0.0359, -0.1285, -0.0166, 9.8418
23444.4482421875, 71.18989995929476, -0.0019, 0.0003, 0.0295, -0.1257, -0.0037, 9.8354
23475.964111328125, 71.18552133072242, 0.0088, 0.0066, 0.0373, -0.1151, 0.0024, 9.8432
23513.5, 71.19346356745534, -0.0084, -0.0012, 0.0295, -0.1318, -0.0055, 9.8354
23545.406982421875, 71.18531362460402, -0.0035, -0.0023, 0.0256, -0.1267, -0.0069, 9.8315
23578.675048828125, 71.19162995929749, 0.0039, 0.0048, 0.0286, -0.1194, 0.0004, 9.8345
23613.22802734375, 71.1857848246046, -0.0060, -0.0163, 0.0332, -0.1293, -0.0204, 9.8391
23643.43408203125, 71.18010053888283, 0.0123, -0.0077, 0.0314, -0.1109, -0.0120, 9.8373
23681.399169921875, 71.16910677562244, 0.0080, 0.0107, 0.0392, -0.1151, 0.0064, 9.8451
23710.447021484375, 71.16369480827687, -0.0039, 0.0128, 0.0479, -0.1270, 0.0084, 9.8538
23749.674072265625, 71.16163876746067, 0.0108, -0.0046, 0.0304, -0.1121, -0.0091, 9.8363
23777.213134765625, 71.1599794695009, 0.0003, 0.0004, 0.0171, -0.1223, -0.0043, 9.8230
23816.39599609375, 71.16119116746113, -0.0020, -0.0115, 0.0328, -0.1246, -0.0162, 9.8387
23845.737060546875, 71.16030969807063, -0.0052, 0.0053, 0.0344, -0.1278, 0.0006, 9.8403
23881.82080078125, 71.16215166542241, -0.0024, -0.0030, 0.0277, -0.1251, -0.0072, 9.8336
23913.9169921875, 71.16102208991157, -0.0029, -0.0033, 0.0301, -0.1257, -0.0078, 9.8360
23943.73486328125, 71.15272489807515, -0.0000, 0.0018, 0.0317, -0.1227, -0.0025, 9.8376
23982.9619140625, 71.15674447358356, 0.0080, -0.0014, 0.0277, -0.1148, -0.0057, 9.8336
24013.120849609375, 71.1484367837888, 0.0009, -0.0091, 0.0250, -0.1221, -0.0135, 9.8309
24046.1552734375, 71.15414466133889, -0.0001, 0.0068, 0.0347, -0.1232, 0.0024, 9.8406
24082.7509765625, 71.16197661236076, -0.0010, 0.0008, 0.0380, -0.1238, -0.0037, 9.8439
24116.56103515625, 71.1560337143961, -0.0082, 0.0027, 0.0297, -0.1311, -0.0019, 9.8355
24147.870849609375, 71.15322733072676, 0.0074, 0.0055, 0.0361, -0.1155, 0.0013, 9.8420
24182.901123046875, 71.1579048082802, -0.0051, -0.0133, 0.0261, -0.1279, -0.0178, 9.8319
24215.5400390625, 71.15483810624217, 0.0036, 0.0056, 0.0255, -0.1196, 0.0010, 9.8313
24250.623046875, 71.16138051440082, -0.0004, 0.0061, 0.0370, -0.1233, 0.0013, 9.8429
24283.044921875, 71.1652549143997, 0.0056, 0.0017, 0.0401, -0.1176, -0.0036, 9.8460
24316.260986328125, 71.16452602460795, -0.0019, 0.0045, 0.0377, -0.1251, -0.0009, 9.8436
24350.075927734375, 71.16314408174367, 0.0003, 0.0026, 0.0322, -0.1229, -0.0028, 9.8381
24383.740966796875, 71.16162101235713, -0.0003, -0.0042, 0.0315, -0.1235, -0.0094, 9.8373
24417.748046875, 71.16654644909138, 0.0013, -0.0002, 0.0407, -0.1220, -0.0054, 9.8466
24449.77392578125, 71.17396846541651, 0.0018, -0.0034, 0.0340, -0.1217, -0.0087, 9.8399
24483.64208984375, 71.17845795113259, -0.0024, -0.0061, 0.0340, -0.1260, -0.0115, 9.8399
24517.799072265625, 71.17149486541902, -0.0033, 0.0001, 0.0301, -0.1267, -0.0054, 9.8360
24550.06103515625, 71.17619931439133, 0.0003, -0.0034, 0.0291, -0.1232, -0.0088, 9.8349
24581.55322265625, 71.16411457970243, 0.0025, 0.0077, 0.0336, -0.1211, 0.0022, 9.8394
24619.364990234375, 71.16378595113311, -0.0109, 0.0031, 0.0416, -0.1344, -0.0024, 9.8475
24648.837890625, 71.15953643276389, -0.0025, 0.0077, 0.0297, -0.1261, 0.0019, 9.8355
24685.169921875, 71.16296459603579, 0.0097, -0.0002, 0.0310, -0.1140, -0.0061, 9.8369
24717.403076171875, 71.15957548582989, -0.0050, 0.0004, 0.0337, -0.1290, -0.0057, 9.8396
24751.560791015625, 71.16130458787119, 0.0002, 0.0039, 0.0392, -0.1239, -0.0024, 9.8451
24785.73388671875, 71.15549017970457, 0.0009, -0.0104, 0.0377, -0.1229, -0.0168, 9.8436
24815.34912109375, 71.1516216817525, -0.0006, -0.0043, 0.0319, -0.1246, -0.0105, 9.8378
24852.10009765625, 71.15368493888799, 0.0012, 0.0059, 0.0303, -0.1229, -0.0004, 9.8361
24883.8310546875, 71.14652460420395, 0.0010, 0.0077, 0.0244, -0.1233, 0.0009, 9.8303
24922.591796875, 71.15210225317225, 0.0002, 0.0034, 0.0409, -0.1242, -0.0033, 9.8468
24948.016845703125, 71.15339941236311, 0.0029, 0.0045, 0.0339, -0.1215, -0.0021, 9.8397
24987.72119140625, 71.14700394297296, 0.0010, 0.0089, 0.0373, -0.1236, 0.0022, 9.8432
25018.984130859375, 71.15442857154821, 0.0050, -0.0000, 0.0324, -0.1193, -0.0067, 9.8382
25052.885986328125, 71.16193370623964, 0.0016, 0.0088, 0.0379, -0.1229, 0.0022, 9.8438
25086.489013671875, 71.16213168174775, 0.0003, 0.0076, 0.0319, -0.1246, 0.0013, 9.8378
25120.013916015625, 71.16000581236008, -0.0024, 0.0009, 0.0324, -0.1273, -0.0055, 9.8382
25153.9208984375, 71.14957130623877, -0.0074, -0.0002, 0.0416, -0.1323, -0.0064, 9.8475
25187.44482421875, 71.15809377970949, -0.0009, 0.0104, 0.0382, -0.1263, 0.0040, 9.8441
25219.749267578125, 71.15908591031689, 0.0005, 0.0011, 0.0409, -0.1249, -0.0051, 9.8468
25252.905029296875, 71.15632524909222, -0.0068, -0.0044, 0.0310, -0.1321, -0.0103, 9.8369
25289.33203125, 71.14933470215693, 0.0025, 0.0084, 0.0336, -0.1226, 0.0028, 9.8394
25319.15673828125, 71.16148734705071, 0.0022, -0.0028, 0.0434, -0.1229, -0.0084, 9.8493
25356.083984375, 71.15381170624038, -0.0076, -0.0075, 0.0325, -0.1326, -0.0126, 9.8384
25386.416259765625, 71.1627487103166, 0.0017, 0.0115, 0.0357, -0.1236, 0.0063, 9.8415
25422.3759765625, 71.16060339603412, -0.0008, -0.0062, 0.0393, -0.1263, -0.0117, 9.8451
25453.981201171875, 71.15820354296926, 0.0017, -0.0049, 0.0273, -0.1238, -0.0103, 9.8331
25489.81494140625, 71.15446101235877, 0.0024, -0.0040, 0.0369, -0.1230, -0.0094, 9.8427
25517.651123046875, 71.15609026133676, -0.0005, -0.0015, 0.0406, -0.1260, -0.0073, 9.8465
25555.84912109375, 71.14881618787197, -0.0029, 0.0009, 0.0289, -0.1285, -0.0051, 9.8348
25588.51123046875, 71.1524798939902, -0.0028, 0.0045, 0.0348, -0.1281, -0.0015, 9.8406
25621.890869140625, 71.14524001643993, -0.0045, -0.0052, 0.0306, -0.1299, -0.0112, 9.8364
25657.078857421875, 71.14783254705799, 0.0007, -0.0002, 0.0327, -0.1249, -0.0064, 9.8385
25689.6181640625, 71.15371124909471, 0.0025, -0.0010, 0.0373, -0.1230, -0.0070, 9.8432
25724.0068359375, 71.14909708583144, 0.0080, 0.0017, 0.0306, -0.1176, -0.0042, 9.8364
25756.4228515625, 71.15331235113555, 0.0012, 0.0035, 0.0297, -0.1246, -0.0021, 9.8355
25790.25, 71.14696401644248, -0.0072, -0.0006, 0.0436, -0.1332, -0.0063, 9.8494
25822.68310546875, 71.15004980419869, 0.0078, 0.0024, 0.0348, -0.1179, -0.0034, 9.8406
25856.4169921875, 71.1514015756236, -0.0014, 0.0051, 0.0364, -0.1273, -0.0006, 9.8423
25887.84716796875, 71.15631303685096, -0.0017, -0.0056, 0.0170, -0.1273, -0.0114, 9.8228
25923.73486328125, 71.15785987766907, -0.0040, 0.0096, 0.0349, -0.1293, 0.0043, 9.8408
25957.64208984375, 71.1544193225631, -0.0018, -0.0003, 0.0328, -0.1273, -0.0060, 9.8387
25989.35595703125, 71.15690972256317, -0.0038, 0.0011, 0.0243, -0.1294, -0.0048, 9.8301
26024.60498046875, 71.15856555113321, 0.0024, 0.0032, 0.0292, -0.1232, -0.0021, 9.8351
26058.703125, 71.15293371439832, 0.0006, -0.0053, 0.0367, -0.1251, -0.0111, 9.8426
26091.337890625, 71.16168601644388, 0.0026, -0.0031, 0.0343, -0.1230, -0.0087, 9.8402
26126.076904296875, 71.16798859602919, 0.0023, -0.0043, 0.0372, -0.1232, -0.0100, 9.8430
26158.677978515625, 71.16583106950411, 0.0093, 0.0028, 0.0417, -0.1166, -0.0031, 9.8475
26188.590087890625, 71.16149346133852, 0.0016, -0.0065, 0.0316, -0.1243, -0.0124, 9.8375
26228.0439453125, 71.16653786133816, 0.0042, 0.0101, 0.0354, -0.1218, 0.0043, 9.8412
26257.22705078125, 71.16758692255999, 0.0037, 0.0038, 0.0310, -0.1221, -0.0018, 9.8369
26293.68994140625, 71.16943610623323, 0.0008, -0.0091, 0.0304, -0.1252, -0.0148, 9.8363
26324.6162109375, 71.16533500419636, 0.0072, 0.0031, 0.0376, -0.1188, -0.0027, 9.8435
26361.23095703125, 71.16196195113392, -0.0015, 0.0005, 0.0298, -0.1273, -0.0048, 9.8357
26392.05615234375, 71.15335801643967, 0.0004, -0.0012, 0.0303, -0.1249, -0.0064, 9.8361
26427.787109375, 71.15286406541895, -0.0019, 0.0060, 0.0333, -0.1272, 0.0009, 9.8391
26459.4609375, 71.15246390215385, -0.0004, 0.0039, 0.0297, -0.1257, -0.0012, 9.8355
26493.154052734375, 71.1480940490956, 0.0005, -0.0017, 0.0294, -0.1246, -0.0064, 9.8352
26524.081787109375, 71.14892059602907, 0.0013, -0.0001, 0.0223, -0.1240, -0.0046, 9.8282
26561.218017578125, 71.16868054704943, -0.0006, 0.0008, 0.0360, -0.1258, -0.0037, 9.8418
26589.679931640625, 71.15722993480368, 0.0106, -0.0004, 0.0333, -0.1148, -0.0051, 9.8391
26629.314208984375, 71.15852292256473, 0.0065, 0.0105, 0.0229, -0.1188, 0.0057, 9.8288
26658.739013671875, 71.15982195113385, -0.0032, 0.0026, 0.0352, -0.1282, -0.0021, 9.8411
26694.5048828125, 71.15997392664144, 0.0066, 0.0135, 0.0250, -0.1184, 0.0084, 9.8309
26726.18994140625, 71.15099474297406, -0.0046, 0.0048, 0.0268, -0.1297, -0.0004, 9.8327
26760.889892578125, 71.15701022868444, 0.0028, -0.0034, 0.0313, -0.1221, -0.0087, 9.8372
26789.60302734375, 71.15974187766481, 0.0008, 0.0058, 0.0455, -0.1240, 0.0006, 9.8514
26827.9921875, 71.16136462868623, -0.0035, 0.0039, 0.0410, -0.1279, -0.0013, 9.8469
26858.315185546875, 71.15277496338193, 0.0087, 0.0042, 0.0482, -0.1158, -0.0009, 9.8541
26896.567138671875, 71.15571731440129, 0.0075, -0.0063, 0.0343, -0.1172, -0.0117, 9.8402
26925.34423828125, 71.15572492256281, 0.0066, -0.0079, 0.0382, -0.1182, -0.0133, 9.8441
26964.154052734375, 71.1555100735826, 0.0007, 0.0007, 0.0512, -0.1242, -0.0045, 9.8571
26995.22998046875, 71.14633140420295, 0.0010, 0.0044, 0.0458, -0.1236, -0.0010, 9.8517
27030.115966796875, 71.14617921643965, -0.0047, 0.0021, 0.0520, -0.1291, -0.0031, 9.8578
27062.421875, 71.14951183684934, 0.0017, 0.0096, 0.0461, -0.1229, 0.0048, 9.8520
27094.4931640625, 71.15589874297012, -0.0053, 0.0031, 0.0526, -0.1297, -0.0018, 9.8584
27130.662109375, 71.1459481307271, 0.0026, 0.0038, 0.0452, -0.1217, -0.0012, 9.8511
27161.0791015625, 71.1466098450106, 0.0018, 0.0040, 0.0609, -0.1223, -0.0010, 9.8668
27197.349853515625, 71.14912472664385, -0.0008, -0.0018, 0.0551, -0.1248, -0.0067, 9.8610
27230.248046875, 71.1538731103218, -0.0057, -0.0038, 0.0541, -0.1299, -0.0087, 9.8599
27263.317138671875, 71.15239677562062, 0.0036, -0.0064, 0.0541, -0.1205, -0.0114, 9.8599
27296.283935546875, 71.14406036746306, 0.0004, 0.0105, 0.0573, -0.1236, 0.0055, 9.8632
27331.011962890625, 71.13494849807198, 0.0065, -0.0018, 0.0636, -0.1175, -0.0069, 9.8695
27364.427001953125, 71.1408131837819, 0.0011, 0.0035, 0.0545, -0.1230, -0.0016, 9.8604
27397.3017578125, 71.13374991031725, -0.0021, -0.0010, 0.0538, -0.1261, -0.0058, 9.8596
27431.62109375, 71.13240421236421, -0.0017, -0.0012, 0.0505, -0.1257, -0.0058, 9.8563
27464.541259765625, 71.13074284092997, 0.0041, 0.0143, 0.0533, -0.1200, 0.0096, 9.8592
27497.408203125, 71.12749766542134, -0.0049, -0.0052, 0.0647, -0.1290, -0.0099, 9.8705
27531.222900390625, 71.12392436746649, -0.0042, -0.0008, 0.0591, -0.1284, -0.0054, 9.8650
27564.27685546875, 71.12967216337992, -0.0007, 0.0056, 0.0606, -0.1248, 0.0013, 9.8665
27596.56005859375, 71.12549521644135, -0.0002, -0.0058, 0.0524, -0.1243, -0.0100, 9.8583
27632.866943359375, 71.12674646542222, 0.0002, 0.0027, 0.0524, -0.1239, -0.0013, 9.8583
27664.733154296875, 71.12530083276754, 0.0100, 0.0101, 0.0475, -0.1140, 0.0057, 9.8533
27697.89990234375, 71.1268561307308, -0.0024, -0.0058, 0.0608, -0.1264, -0.0102, 9.8667
27731.37890625, 71.12825997562595, -0.0084, 0.0090, 0.0529, -0.1326, 0.0049, 9.8587
27767.90673828125, 71.12138252256685, -0.0002, -0.0047, 0.0687, -0.1242, -0.0085, 9.8746
27798.916015625, 71.12277328174856, -0.0070, 0.0039, 0.0529, -0.1311, -0.0001, 9.8587
27833.455078125, 71.13036354297155, -0.0052, 0.0012, 0.0618, -0.1293, -0.0024, 9.8677
27866.119140625, 71.13007667767059, -0.0032, -0.0006, 0.0603, -0.1273, -0.0043, 9.8662
27899.509033203125, 71.13001246542134, 0.0080, 0.0055, 0.0593, -0.1163, 0.0018, 9.8652
27932.697998046875, 71.12525573889033, -0.0023, -0.0044, 0.0580, -0.1269, -0.0081, 9.8638
27966.916015625, 71.13471760827886, 0.0105, 0.0072, 0.0594, -0.1139, 0.0036, 9.8653
27999.667724609375, 71.12794506134004, 0.0024, 0.0069, 0.0606, -0.1221, 0.0031, 9.8665
28033.7958984375, 71.1319580490987, -0.0095, -0.0004, 0.0491, -0.1342, -0.0043, 9.8550
28066.04296875, 71.13017910215504, -0.0006, -0.0062, 0.0656, -0.1252, -0.0102, 9.8714
28101.468994140625, 71.13210360828295, -0.0012, 0.0063, 0.0602, -0.1255, 0.0025, 9.8661
28134.361083984375, 71.12125593480822, -0.0020, 0.0103, 0.0563, -0.1272, 0.0066, 9.8622
28165.753173828125, 71.11977102052383, -0.0003, 0.0082, 0.0641, -0.1254, 0.0046, 9.8699
28201.632080078125, 71.11269937970792, -0.0001, 0.0031, 0.0590, -0.1248, -0.0007, 9.8649
28234.64111328125, 71.1049040409343, 0.0019, 0.0009, 0.0566, -0.1224, -0.0027, 9.8625
28266.391845703125, 71.10969199195144, 0.0026, 0.0090, 0.0538, -0.1218, 0.0055, 9.8596
28301.02197265625, 71.10369886541908, -0.0015, -0.0034, 0.0614, -0.1260, -0.0070, 9.8673
28336.093017578125, 71.10588151848226, -0.0126, -0.0070, 0.0606, -0.1369, -0.0103, 9.8665
28369.22412109375, 71.1127977470576, -0.0041, 0.0030, 0.0585, -0.1281, -0.0003, 9.8644
28402.786865234375, 71.10677663684856, 0.0076, 0.0025, 0.0672, -0.1163, -0.0009, 9.8731
28436.646240234375, 71.10815097154047, -0.0061, -0.0014, 0.0578, -0.1300, -0.0049, 9.8637
28466.803955078125, 71.10431047358307, -0.0057, 0.0062, 0.0680, -0.1297, 0.0030, 9.8738
28503.89990234375, 71.10163356745947, -0.0009, -0.0043, 0.0515, -0.1248, -0.0073, 9.8574
28534.26806640625, 71.10071472664225, -0.0026, -0.0045, 0.0548, -0.1261, -0.0078, 9.8607
28571.881103515625, 71.10151884909433, -0.0067, 0.0048, 0.0629, -0.1302, 0.0018, 9.8687
28600.566162109375, 71.10493648174716, 0.0018, 0.0018, 0.0615, -0.1221, -0.0012, 9.8674
28638.458984375, 71.1062289388936, 0.0018, -0.0093, 0.0505, -0.1224, -0.0121, 9.8563
28668.9599609375, 71.11165654705346, 0.0077, -0.0030, 0.0599, -0.1160, -0.0057, 9.8658
28705.344970703125, 71.10856795929885, -0.0050, -0.0028, 0.0509, -0.1287, -0.0052, 9.8568
28733.751953125, 71.10298521643817, -0.0026, 0.0061, 0.0573, -0.1264, 0.0034, 9.8632
28771.525146484375, 71.09362583685223, -0.0110, -0.0050, 0.0533, -0.1345, -0.0078, 9.8592
28803.37109375, 71.09580924092829, 0.0021, 0.0012, 0.0623, -0.1211, -0.0016, 9.8682
28838.4248046875, 71.10289693889345, -0.0056, -0.0014, 0.0494, -0.1288, -0.0042, 9.8553
28870.545166015625, 71.10017614705401, -0.0060, -0.0008, 0.0597, -0.1291, -0.0034, 9.8656
28904.828125, 71.10366578786915, 0.0084, 0.0008, 0.0531, -0.1149, -0.0016, 9.8590
28938.336181640625, 71.100802024607, -0.0042, -0.0011, 0.0476, -0.1275, -0.0039, 9.8535
28971.3330078125, 71.10485821236404, -0.0078, -0.0066, 0.0605, -0.1312, -0.0091, 9.8664
29005.51513671875, 71.09681520011662, 0.0046, 0.0042, 0.0557, -0.1187, 0.0019, 9.8616
29037.3662109375, 71.09493665317729, -0.0115, -0.0080, 0.0554, -0.1345, -0.0100, 9.8613
29072.61474609375, 71.08001240011598, -0.0017, -0.0064, 0.0629, -0.1246, -0.0084, 9.8687
29105.196044921875, 71.07518365726084, 0.0013, 0.0083, 0.0470, -0.1217, 0.0066, 9.8529
29138.60107421875, 71.0747023919539, -0.0018, 0.0063, 0.0475, -0.1246, 0.0043, 9.8533
29172.125, 71.07082877562564, -0.0054, -0.0133, 0.0539, -0.1284, -0.0151, 9.8598
29206.676025390625, 71.06346408174973, 0.0070, -0.0052, 0.0497, -0.1163, -0.0066, 9.8556
29240.592041015625, 71.0738243348103, -0.0033, -0.0048, 0.0487, -0.1267, -0.0063, 9.8545
29271.361083984375, 71.07675906133895, -0.0074, 0.0012, 0.0517, -0.1312, -0.0006, 9.8575
29308.618896484375, 71.08943347766768, -0.0012, 0.0015, 0.0597, -0.1251, -0.0003, 9.8656
29337.627197265625, 71.07249567358583, 0.0028, -0.0006, 0.0466, -0.1212, -0.0025, 9.8524
29375.636962890625, 71.08073222052187, -0.0014, 0.0015, 0.0449, -0.1254, -0.0004, 9.8508
29404.739013671875, 71.08295812256365, -0.0040, -0.0008, 0.0575, -0.1278, -0.0027, 9.8634
29441.35302734375, 71.06710326542303, -0.0014, -0.0030, 0.0584, -0.1248, -0.0046, 9.8643
29474.837890625, 71.07282920828132, -0.0013, -0.0038, 0.0509, -0.1246, -0.0052, 9.8568
29508.7978515625, 71.07298415521873, -0.0033, -0.0010, 0.0539, -0.1266, -0.0019, 9.8598
29540.8359375, 71.078471779704, 0.0057, -0.0011, 0.0529, -0.1178, -0.0021, 9.8587
29575.414794921875, 71.07463171440546, 0.0078, 0.0039, 0.0554, -0.1160, 0.0027, 9.8613
29604.6630859375, 71.07693644909283, 0.0019, 0.0008, 0.0490, -0.1218, -0.0003, 9.8548
29643.635009765625, 71.07402284909925, -0.0085, 0.0033, 0.0543, -0.1321, 0.0022, 9.8602
29673.837890625, 71.06809555113921, 0.0010, -0.0013, 0.0493, -0.1224, -0.0025, 9.8551
29709.9169921875, 71.06221648174933, -0.0041, -0.0092, 0.0430, -0.1276, -0.0099, 9.8488
29741.5048828125, 71.06087844093064, -0.0026, -0.0009, 0.0523, -0.1261, -0.0016, 9.8581
29776.766845703125, 71.061915142976, 0.0095, 0.0036, 0.0563, -0.1143, 0.0028, 9.8622
29808.759033203125, 71.05887017154842, -0.0021, -0.0127, 0.0517, -0.1260, -0.0132, 9.8575
29843.488037109375, 71.06917988583237, -0.0072, -0.0090, 0.0603, -0.1309, -0.0094, 9.8662
29876.39501953125, 71.06684466950648, -0.0001, 0.0019, 0.0436, -0.1236, 0.0013, 9.8494
29907.402099609375, 71.06216715113396, -0.0054, -0.0077, 0.0532, -0.1290, -0.0082, 9.8590
29939.899169921875, 71.0528757552156, -0.0066, -0.0034, 0.0488, -0.1303, -0.0040, 9.8547
29977.762939453125, 71.0463698123583, -0.0050, -0.0059, 0.0475, -0.1287, -0.0067, 9.8533
30009.802978515625, 71.05498050623623, -0.0018, -0.0017, 0.0544, -0.1255, -0.0027, 9.8602
30044.513916015625, 71.04221711031877, -0.0014, -0.0044, 0.0517, -0.1251, -0.0054, 9.8575
30075.06201171875, 71.0286455348047, 0.0008, -0.0044, 0.0511, -0.1230, -0.0051, 9.8569
30112.727783203125, 71.02356916746079, 0.0019, -0.0085, 0.0563, -0.1221, -0.0094, 9.8622
30141.998046875, 71.02059587766175, -0.0005, -0.0000, 0.0493, -0.1243, -0.0012, 9.8551
30178.561767578125, 71.02393026133984, -0.0002, -0.0070, 0.0476, -0.1236, -0.0079, 9.8535
30209.099853515625, 71.00689880011106, -0.0027, -0.0109, 0.0479, -0.1264, -0.0123, 9.8538
30245.383056640625, 71.00730427766574, -0.0014, 0.0009, 0.0451, -0.1255, -0.0001, 9.8509
30276.134033203125, 71.01074286541918, -0.0004, 0.0030, 0.0505, -0.1245, 0.0019, 9.8563
30311.741943359375, 71.0033290450127, -0.0039, -0.0084, 0.0569, -0.1284, -0.0094, 9.8628
30344.258056640625, 71.01543540419384, -0.0025, -0.0002, 0.0624, -0.1272, -0.0012, 9.8683
30377.703857421875, 71.00604286542071, 0.0002, -0.0022, 0.0407, -0.1242, -0.0030, 9.8466
30412.907958984375, 71.0142384327686, -0.0083, -0.0037, 0.0574, -0.1329, -0.0048, 9.8632
30445.288818359375, 71.02052857970796, -0.0041, -0.0030, 0.0494, -0.1288, -0.0039, 9.8553
30479.2939453125, 71.01619248990926, 0.0002, -0.0046, 0.0493, -0.1242, -0.0057, 9.8551
30509.947998046875, 71.01934653072156, -0.0014, -0.0095, 0.0506, -0.1261, -0.0106, 9.8565
30546.890869140625, 71.01733776337667, 0.0041, -0.0118, 0.0563, -0.1209, -0.0129, 9.8622
30579.98095703125, 71.01464514296916, -0.0061, -0.0088, 0.0487, -0.1309, -0.0100, 9.8545
30611.263916015625, 71.0121914205204, 0.0031, 0.0011, 0.0428, -0.1220, -0.0001, 9.8487
30646.946044921875, 71.01049902868051, 0.0008, 0.0020, 0.0530, -0.1242, 0.0006, 9.8589
30678.60107421875, 71.01993534705096, -0.0016, -0.0014, 0.0592, -0.1266, -0.0031, 9.8650
30713.554931640625, 71.03107933072496, 0.0018, -0.0041, 0.0412, -0.1230, -0.0055, 9.8471
30746.613037109375, 71.02297680011293, -0.0064, -0.0037, 0.0342, -0.1314, -0.0054, 9.8400
30780.930908203125, 71.02502048174331, 0.0031, -0.0045, 0.0571, -0.1221, -0.0061, 9.8629
30813.64794921875, 71.00377017153919, -0.0046, -0.0092, 0.0470, -0.1299, -0.0108, 9.8529
30846.72607421875, 71.00470786133266, -0.0005, -0.0078, 0.0454, -0.1258, -0.0088, 9.8512
30881.17626953125, 71.00678089807407, -0.0053, 0.0010, 0.0479, -0.1308, -0.0003, 9.8538
30914.120849609375, 71.00935628582829, 0.0020, 0.0007, 0.0520, -0.1236, -0.0009, 9.8578
30946.490966796875, 71.01059070215696, 0.0091, 0.0017, 0.0607, -0.1166, 0.0004, 9.8665
30981.929931640625, 71.01567889807734, 0.0007, -0.0006, 0.0378, -0.1245, -0.0018, 9.8436
31015.012939453125, 71.02145521643989, 0.0004, -0.0040, 0.0566, -0.1248, -0.0051, 9.8625
31048.093994140625, 71.02200776337968, 0.0017, -0.0045, 0.0484, -0.1235, -0.0054, 9.8542
31080.12109375, 71.01994176338293, -0.0024, -0.0016, 0.0508, -0.1275, -0.0021, 9.8566
31117.134033203125, 71.02554831031603, -0.0088, -0.0016, 0.0469, -0.1341, -0.0022, 9.8527
31148.4091796875, 71.03546782868614, 0.0035, -0.0010, 0.0524, -0.1218, -0.0018, 9.8583
31180.077880859375, 71.03174186133674, 0.0029, 0.0054, 0.0491, -0.1224, 0.0045, 9.8550
31215.4052734375, 71.03602707766412, -0.0124, -0.0051, 0.0499, -0.1380, -0.0060, 9.8557
31248.1748046875, 71.03375756745906, 0.0047, 0.0037, 0.0379, -0.1209, 0.0025, 9.8438
31282.994873046875, 71.02976388582573, 0.0056, -0.0060, 0.0608, -0.1197, -0.0070, 9.8667
31316.342041015625, 71.02717343684903, -0.0066, -0.0091, 0.0497, -0.1318, -0.0103, 9.8556
31349.66015625, 71.0244672246041, -0.0046, -0.0015, 0.0523, -0.1300, -0.0027, 9.8581
31383.345947265625, 71.02441212256335, 0.0059, -0.0011, 0.0457, -0.1197, -0.0025, 9.8515
31416.743896484375, 71.02750595929533, 0.0011, 0.0014, 0.0382, -0.1243, 0.0003, 9.8441
31449.537841796875, 71.02726711031491, -0.0026, -0.0016, 0.0490, -0.1278, -0.0027, 9.8548
31482.841064453125, 71.03057516746152, 0.0032, -0.0124, 0.0547, -0.1218, -0.0133, 9.8605
31516.998046875, 71.03863499602872, 0.0017, 0.0006, 0.0569, -0.1233, -0.0004, 9.8628
31551.125, 71.03293688991015, 0.0062, 0.0086, 0.0502, -0.1185, 0.0073, 9.8560
31582.81005859375, 71.02936424500552, 0.0000, 0.0011, 0.0475, -0.1246, -0.0004, 9.8533
31615.48486328125, 71.03444205725147, 0.0034, 0.0017, 0.0505, -0.1214, -0.0001, 9.8563
31653.31591796875, 71.05232106134088, 0.0007, -0.0134, 0.0400, -0.1238, -0.0150, 9.8459
31684.261962890625, 71.05186609808048, -0.0020, -0.0007, 0.0538, -0.1267, -0.0019, 9.8596
31717.98486328125, 71.04491248990348, 0.0028, 0.0045, 0.0556, -0.1223, 0.0034, 9.8614
31750.443115234375, 71.03959778787092, -0.0056, -0.0129, 0.0419, -0.1299, -0.0142, 9.8478
31784.12890625, 71.04746723276766, -0.0066, -0.0009, 0.0473, -0.1308, -0.0022, 9.8532
31817.69921875, 71.04666903684681, 0.0040, 0.0113, 0.0529, -0.1202, 0.0100, 9.8587
31853.302001953125, 71.0339000082768, -0.0056, -0.0064, 0.0413, -0.1294, -0.0076, 9.8472
31885.287841796875, 71.04503687358336, -0.0023, -0.0026, 0.0502, -0.1263, -0.0039, 9.8560
31916.751953125, 71.05726977969793, -0.0003, 0.0102, 0.0680, -0.1246, 0.0088, 9.8738
31952.39306640625, 71.05967689807096, 0.0061, 0.0115, 0.0202, -0.1184, 0.0099, 9.8261
31985.0830078125, 71.06917333071809, -0.0174, -0.0140, 0.0570, -0.1416, -0.0157, 9.8629
32018.4619140625, 71.04325631847432, 0.0009, 0.0070, 0.0591, -0.1236, 0.0049, 9.8650
32051.708984375, 71.08348666949885, -0.0004, -0.0019, 0.0623, -0.1248, -0.0039, 9.8682
32084.90283203125, 71.07762384501352, -0.0146, -0.0109, 0.0638, -0.1396, -0.0133, 9.8696
32121.40478515625, 71.07809218787075, 0.0066, -0.0014, 0.0514, -0.1182, -0.0036, 9.8572
32151.10888671875, 71.08276796746406, -0.0087, -0.0087, 0.0539, -0.1336, -0.0111, 9.8598
32187.756103515625, 71.08790285725826, -0.0009, 0.0022, 0.0539, -0.1258, -0.0001, 9.8598
32220.43701171875, 71.07628235929832, 0.0070, -0.0031, 0.0922, -0.1178, -0.0055, 9.8981
32254.862060546875, 71.0820136490986, 0.0066, -0.0067, 0.0158, -0.1182, -0.0096, 9.8216
32286.5849609375, 71.0802739348078, -0.0038, 0.0058, 0.0264, -0.1287, 0.0028, 9.8322
32321.463134765625, 71.08098861236165, 0.0081, 0.0101, 0.0434, -0.1166, 0.0070, 9.8493
32353.3310546875, 71.08774351848668, -0.0004, 0.0075, 0.0535, -0.1254, 0.0043, 9.8593
32390.10205078125, 71.09161653889122, -0.0069, -0.0025, 0.0647, -0.1323, -0.0052, 9.8705
32419.63916015625, 71.09284010623702, 0.0001, -0.0021, 0.0440, -0.1249, -0.0048, 9.8499
32454.66796875, 71.10007528991184, 0.0040, 0.0089, 0.0346, -0.1211, 0.0055, 9.8405
32488.5791015625, 71.09181367358116, -0.0100, -0.0117, -0.0070, -0.1354, -0.0154, 9.7989
32519.906005859375, 71.10422733072771, 0.0028, 0.0138, 0.0484, -0.1230, 0.0102, 9.8542
32557.52294921875, 71.10441409807285, 0.0088, -0.0110, 0.0532, -0.1170, -0.0145, 9.8590
32584.914794921875, 71.10101769807336, 0.0139, -0.0118, 0.0611, -0.1118, -0.0151, 9.8670
32623.812744140625, 71.10046026133679, -0.0082, 0.0009, 0.0524, -0.1339, -0.0022, 9.8583
32655.631103515625, 71.09067134705464, 0.0146, 0.0136, 0.0551, -0.1110, 0.0105, 9.8610
32689.231201171875, 71.08430933073025, -0.0069, -0.0082, 0.0616, -0.1327, -0.0112, 9.8674
32722.72998046875, 71.08661308582778, -0.0018, 0.0074, 0.0509, -0.1278, 0.0048, 9.8568
32755.003173828125, 71.08544769807482, 0.0018, -0.0028, 0.0436, -0.1235, -0.0054, 9.8494
32789.138916015625, 71.07840593481198, -0.0092, -0.0039, 0.0550, -0.1348, -0.0063, 9.8608
32823.9208984375, 71.08183357562989, 0.0030, 0.0063, 0.0548, -0.1223, 0.0043, 9.8607
32856.2490234375, 71.07596457971061, 0.0043, 0.0010, 0.0592, -0.1211, -0.0009, 9.8650
32888.276123046875, 71.07549221236515, -0.0031, -0.0023, 0.0508, -0.1287, -0.0040, 9.8566
32924.99609375, 71.0779995348116, -0.0005, -0.0043, 0.0440, -0.1258, -0.0055, 9.8499
32955.718017578125, 71.07935269399074, -0.0049, -0.0102, 0.0455, -0.1302, -0.0115, 9.8514
32992.037109375, 71.07710810624005, 0.0090, 0.0039, 0.0521, -0.1161, 0.0021, 9.8580
33020.507080078125, 71.08128586134463, -0.0025, -0.0070, 0.0499, -0.1276, -0.0090, 9.8557
33058.89599609375, 71.08186151848227, 0.0081, -0.0048, 0.0544, -0.1169, -0.0066, 9.8602
33089.717041015625, 71.07905660420167, 0.0069, 0.0052, 0.0436, -0.1181, 0.0034, 9.8494
33125.06787109375, 71.08287782052567, -0.0023, -0.0020, 0.0584, -0.1275, -0.0040, 9.8643
33157.4599609375, 71.08717361644122, 0.0079, -0.0033, 0.0379, -0.1170, -0.0049, 9.8438
33189.409912109375, 71.08510097971086, 0.0052, 0.0054, 0.0662, -0.1197, 0.0039, 9.8720
33224.787841796875, 71.08360918378854, 0.0009, 0.0009, 0.0440, -0.1242, -0.0006, 9.8499
33258.578857421875, 71.07909720012304, -0.0047, -0.0065, 0.0452, -0.1296, -0.0079, 9.8511
33292.658935546875, 71.08631946134332, 0.0049, -0.0018, 0.0433, -0.1205, -0.0033, 9.8491
33325.76611328125, 71.07846890624083, 0.0028, 0.0010, 0.0458, -0.1226, -0.0006, 9.8517
33358.371826171875, 71.09086502868304, -0.0029, -0.0003, 0.0699, -0.1281, -0.0016, 9.8758
33394.15283203125, 71.0987160246053, -0.0036, -0.0037, 0.0448, -0.1290, -0.0048, 9.8506
33424.385986328125, 71.09148768174511, 0.0007, 0.0100, 0.0599, -0.1245, 0.0087, 9.8658
33460.691162109375, 71.07583333888935, -0.0106, -0.0326, 0.0376, -0.1356, -0.0335, 9.8435
33488.1650390625, 71.07039727358492, -0.0043, 0.0091, 0.0559, -0.1291, 0.0084, 9.8617
33529.863037109375, 71.06796232664372, -0.0100, 0.0092, 0.0425, -0.1347, 0.0087, 9.8484
33555.955078125, 71.0707253307277, 0.0061, -0.0032, 0.0262, -0.1187, -0.0039, 9.8321
33595.577880859375, 71.06737529807606, -0.0054, 0.0035, 0.0578, -0.1296, 0.0025, 9.8637
33625.85986328125, 71.07827351847833, -0.0001, -0.0146, 0.0593, -0.1248, -0.0153, 9.8652
33662.296875, 71.07647670215705, -0.0069, -0.0101, 0.0521, -0.1312, -0.0108, 9.8580
33692.8740234375, 71.07289465317425, 0.0019, -0.0036, 0.0520, -0.1227, -0.0045, 9.8578
33729.507080078125, 71.07316639195243, -0.0010, 0.0012, 0.0328, -0.1254, 0.0003, 9.8387
33759.8720703125, 71.07683197562838, -0.0074, 0.0023, 0.0458, -0.1317, 0.0009, 9.8517
33794.66015625, 71.08301697154558, -0.0029, -0.0021, 0.0502, -0.1272, -0.0036, 9.8560
33827.613037109375, 71.07455848174827, 0.0040, -0.0013, 0.0421, -0.1208, -0.0027, 9.8479
33861.864013671875, 71.07912144501537, -0.0001, 0.0007, 0.0500, -0.1249, -0.0010, 9.8559
33892.846923828125, 71.08775329807492, 0.0067, -0.0022, 0.0433, -0.1187, -0.0040, 9.8491
33929.635986328125, 71.09079942052439, 0.0041, 0.0090, 0.0541, -0.1212, 0.0069, 9.8599
33960.06689453125, 71.09012160828283, -0.0082, -0.0039, 0.0408, -0.1333, -0.0066, 9.8466
33996.372802734375, 71.0933338531758, -0.0081, -0.0109, 0.0434, -0.1333, -0.0138, 9.8493
34026.533935546875, 71.0893578286864, 0.0345, 0.0988, 0.0312, -0.0907, 0.0959, 9.8370
34064.9111328125, 71.0896788246057, -0.0270, 0.0201, 0.0490, -0.1523, 0.0172, 9.8548
34094.278076171875, 71.09297813889232, 0.0001, -0.0270, 0.0072, -0.1249, -0.0296, 9.8131
34130.43994140625, 71.09970764909424, 0.0136, -0.0039, 0.0470, -0.1106, -0.0066, 9.8529
34162.5859375, 71.10222142868585, -0.0121, -0.0141, 0.0606, -0.1369, -0.0169, 9.8665
34194.129150390625, 71.10263422868927, 0.0175, 0.0027, 0.0644, -0.1070, 0.0003, 9.8702
34230.657958984375, 71.12387785317914, -0.0056, -0.0090, 0.0536, -0.1300, -0.0114, 9.8595
34261.84912109375, 71.12462237562201, 0.0109, 0.0070, 0.0437, -0.1137, 0.0042, 9.8496
34297.011962890625, 71.12438432664537, -0.0101, -0.0074, 0.0530, -0.1344, -0.0105, 9.8589
34329.9609375, 71.12133590215339, -0.0101, -0.0146, 0.0401, -0.1345, -0.0177, 9.8460
34364.679931640625, 71.1193896654176, -0.0061, -0.0017, 0.0512, -0.1305, -0.0043, 9.8571
34396.6728515625, 71.11820524909434, -0.0033, -0.0012, 0.0394, -0.1281, -0.0045, 9.8453
34432.79296875, 71.12271188582889, 0.0137, 0.0075, 0.0496, -0.1106, 0.0042, 9.8554
34463.8740234375, 71.1231352082789, -0.0332, -0.0345, 0.0662, -0.1580, -0.0382, 9.8720
34499.6259765625, 71.11548036746764, 0.0011, -0.0180, 0.0786, -0.1238, -0.0217, 9.8845
34529.10400390625, 71.11310818787253, -0.0009, 0.0035, 0.0473, -0.1257, -0.0004, 9.8532
34563.116943359375, 71.12237991032174, 0.0005, 0.0084, 0.0610, -0.1245, 0.0045, 9.8668
34599.4541015625, 71.12406106134465, 0.0027, -0.0100, 0.0524, -0.1224, -0.0145, 9.8583
34631.468017578125, 71.11656977971151, 0.0024, 0.0135, 0.0339, -0.1224, 0.0090, 9.8397
34666.236083984375, 71.11050136338362, -0.0014, 0.0009, 0.0467, -0.1261, -0.0037, 9.8526
34697.5400390625, 71.11608401644332, -0.0138, -0.0095, 0.0494, -0.1384, -0.0142, 9.8553
34733.092041015625, 71.11696288174973, -0.0030, 0.0003, 0.0457, -0.1276, -0.0042, 9.8515
34764.804931640625, 71.11553804909357, 0.0047, -0.0007, 0.0494, -0.1199, -0.0052, 9.8553
34798.61083984375, 71.11438585317694, 0.0030, 0.0016, 0.0518, -0.1218, -0.0033, 9.8577
34831.239013671875, 71.11417035929999, -0.0072, 0.0021, 0.0514, -0.1321, -0.0028, 9.8572
34865.0859375, 71.11792648991408, -0.0013, -0.0020, 0.0529, -0.1260, -0.0069, 9.8587
34899.327880859375, 71.11215534705813, 0.0090, -0.0012, 0.0556, -0.1158, -0.0061, 9.8614
34934.6240234375, 71.12132763276561, -0.0097, 0.0099, 0.0563, -0.1345, 0.0051, 9.8622
34966.737060546875, 71.10879335521973, 0.0017, -0.0087, 0.0542, -0.1229, -0.0135, 9.8601
34999.9912109375, 71.11212187766915, -0.0227, -0.0093, 0.0457, -0.1469, -0.0139, 9.8515
35031.210205078125, 71.1113754613404, 0.0122, 0.0091, 0.0490, -0.1116, 0.0048, 9.8548
35066.759033203125, 71.11885427766579, -0.0080, 0.0046, 0.0475, -0.1320, 0.0000, 9.8533
35100.988037109375, 71.11925144501183, -0.0037, -0.0169, 0.0113, -0.1278, -0.0218, 9.8171
35134.83984375, 71.11941781236101, 0.0076, 0.0012, 0.0514, -0.1157, -0.0034, 9.8572
35165.8798828125, 71.12762168174726, -0.0056, 0.0108, 0.0436, -0.1291, 0.0061, 9.8494
35200.612060546875, 71.12659019603565, 0.0059, 0.0094, 0.0740, -0.1178, 0.0043, 9.8798
35234.95703125, 71.12948850623992, 0.0011, 0.0042, 0.0551, -0.1226, -0.0009, 9.8610
35267.95703125, 71.11721027767095, 0.0055, -0.0075, 0.0511, -0.1184, -0.0124, 9.8569
35301.532958984375, 71.12345485725893, 0.0101, 0.0140, 0.0533, -0.1134, 0.0093, 9.8592
35334.505859375, 71.11754783685467, -0.0019, -0.0102, 0.0508, -0.1255, -0.0151, 9.8566
35365.048095703125, 71.10792777971143, 0.0049, -0.0029, 0.0415, -0.1184, -0.0081, 9.8473
35402.070068359375, 71.10625857970818, -0.0036, -0.0018, 0.0431, -0.1269, -0.0070, 9.8490
35436.81103515625, 71.10680780419796, 0.0005, -0.0010, 0.0560, -0.1227, -0.0061, 9.8619
35467.64306640625, 71.10506208991083, -0.0100, 0.0045, 0.0469, -0.1332, -0.0007, 9.8527
35500.884033203125, 71.10331601644192, -0.0002, 0.0166, 0.0563, -0.1236, 0.0111, 9.8622
35535.576904296875, 71.10443980419733, 0.0052, 0.0061, 0.0707, -0.1181, 0.0007, 9.8765
35569.050048828125, 71.10559807358554, 0.0001, 0.0048, 0.0618, -0.1233, -0.0004, 9.8677
35603.93212890625, 71.10156728174711, -0.0022, 0.0022, 0.0379, -0.1254, -0.0025, 9.8438
35633.39501953125, 71.09999174705631, -0.0007, 0.0042, 0.1067, -0.1240, -0.0010, 9.9126
35669.9267578125, 71.10257162460807, -0.0097, -0.0101, 0.0584, -0.1330, -0.0156, 9.8643
35703.43896484375, 71.10403155929974, 0.0237, -0.0004, 0.0786, -0.0997, -0.0054, 9.8845
35733.6259765625, 71.10419178786711, 0.0053, 0.0294, 0.0407, -0.1182, 0.0244, 9.8466
35771.0458984375, 71.10801154297131, -0.0137, -0.0051, 0.0711, -0.1374, -0.0105, 9.8770
35802.27197265625, 71.11360230215367, -0.0245, -0.0073, 0.0496, -0.1481, -0.0127, 9.8554
35836.488037109375, 71.11620987766244, 0.0149, 0.0157, 0.0440, -0.1082, 0.0106, 9.8499
35869.55810546875, 71.11458790215829, -0.0186, -0.0085, 0.0573, -0.1425, -0.0139, 9.8632
35903.526123046875, 71.11660666134034, 0.0105, -0.0032, 0.0605, -0.1133, -0.0087, 9.8664
35938.048095703125, 71.11466716746308, -0.0060, 0.0063, 0.0581, -0.1293, 0.0013, 9.8640
35969.126953125, 71.1177853797086, -0.0095, -0.0065, 0.0564, -0.1335, -0.0118, 9.8623
36003.253173828125, 71.11848519195598, 0.0074, 0.0112, 0.0458, -0.1161, 0.0063, 9.8517
36035.585205078125, 71.1245232735881, -0.0020, 0.0006, 0.0532, -0.1258, -0.0039, 9.8590
36072.7509765625, 71.12459033481304, -0.0044, 0.0006, 0.0376, -0.1284, -0.0036, 9.8435
36103.335205078125, 71.12727307766873, -0.0082, -0.0108, 0.0551, -0.1326, -0.0151, 9.8610
36138.989990234375, 71.11854447358587, 0.0002, 0.0061, 0.0600, -0.1240, 0.0019, 9.8659
36171.931884765625, 71.1195930531759, 0.0057, 0.0053, 0.0479, -0.1185, 0.0012, 9.8538
36206.15087890625, 71.11087323277394, -0.0063, -0.0008, 0.0633, -0.1308, -0.0051, 9.8692
36239.7890625, 71.1079344572603, 0.0148, 0.0070, 0.0515, -0.1094, 0.0027, 9.8574
36272.64892578125, 71.11032088175152, -0.0022, -0.0004, 0.0424, -0.1263, -0.0045, 9.8482
36306.18408203125, 71.10306581236397, -0.0021, -0.0004, 0.0490, -0.1264, -0.0040, 9.8548
36340.032958984375, 71.09601966541629, 0.0029, -0.0114, 0.0621, -0.1208, -0.0150, 9.8680
36372.970947265625, 71.0995174123617, -0.0049, 0.0067, 0.0593, -0.1287, 0.0030, 9.8652
36406.44189453125, 71.09708136338264, -0.0016, -0.0086, 0.0416, -0.1254, -0.0123, 9.8475
36439.82275390625, 71.09444473481268, -0.0004, 0.0041, 0.0547, -0.1242, 0.0001, 9.8605
36474.200927734375, 71.09409907766462, 0.0049, 0.0022, 0.0582, -0.1191, -0.0019, 9.8641
36506.892822265625, 71.09280630215922, -0.0032, -0.0043, 0.0535, -0.1272, -0.0082, 9.8593
36540.55908203125, 71.09583999195202, 0.0026, 0.0049, 0.0594, -0.1217, 0.0012, 9.8653
36573.780029296875, 71.09077200011932, -0.0012, 0.0045, 0.0482, -0.1252, 0.0006, 9.8541
36607.93701171875, 71.1003357552203, 0.0008, -0.0024, 0.0517, -0.1232, -0.0058, 9.8575
36641.928955078125, 71.09387146133508, 0.0027, 0.0112, 0.0469, -0.1214, 0.0078, 9.8527
36671.31103515625, 71.08974324093226, 0.0030, -0.0035, 0.0470, -0.1211, -0.0072, 9.8529
36709.81103515625, 71.09614868583053, -0.0052, -0.0102, 0.0530, -0.1290, -0.0138, 9.8589
36739.698974609375, 71.10269567358533, 0.0086, 0.0138, 0.0407, -0.1152, 0.0103, 9.8466
36776.105224609375, 71.10323355929782, -0.0028, -0.0077, 0.0473, -0.1275, -0.0111, 9.8532
36805.952880859375, 71.09877010623843, -0.0100, -0.0144, 0.0535, -0.1347, -0.0180, 9.8593
36844.014892578125, 71.08795025317711, 0.0064, 0.0041, 0.0517, -0.1182, 0.0000, 9.8575
36874.474853515625, 71.08007061236012, -0.0041, -0.0065, 0.0499, -0.1288, -0.0112, 9.8557
36910.39697265625, 71.07865037562594, -0.0049, -0.0022, 0.0427, -0.1297, -0.0064, 9.8485
36942.221923828125, 71.07325933072514, 0.0082, -0.0048, 0.0487, -0.1167, -0.0091, 9.8545
36974.0068359375, 71.06465692256279, 0.0015, -0.0028, 0.0497, -0.1233, -0.0073, 9.8556
37011.5849609375, 71.05116287358486, -0.0012, -0.0002, 0.0497, -0.1261, -0.0048, 9.8556
37039.531005859375, 71.04496377970612, -0.0012, -0.0034, 0.0458, -0.1260, -0.0079, 9.8517
37078.2529296875, 71.03704619603393, -0.0027, 0.0017, 0.0481, -0.1272, -0.0027, 9.8539
37108.316162109375, 71.03079706950281, -0.0068, 0.0062, 0.0415, -0.1312, 0.0016, 9.8473
37143.446044921875, 71.01021907766287, 0.0018, 0.0043, 0.0568, -0.1224, -0.0001, 9.8626
37176.127197265625, 71.00743431031638, -0.0093, -0.0123, 0.0319, -0.1336, -0.0168, 9.8378
37209.472900390625, 71.00594351848262, 0.0050, 0.0044, 0.0461, -0.1193, 0.0001, 9.8520
37245.673828125, 71.00502286542205, 0.0013, -0.0019, 0.0389, -0.1229, -0.0058, 9.8448
37276.469970703125, 71.00246470215802, -0.0101, 0.0001, 0.0497, -0.1347, -0.0040, 9.8556
37310.798828125, 71.00241881644277, 0.0053, -0.0066, 0.0436, -0.1191, -0.0105, 9.8494
37344.05908203125, 70.98949370623511, -0.0090, -0.0047, 0.0385, -0.1335, -0.0087, 9.8444
37377.230712890625, 70.99431232664371, 0.0012, -0.0014, 0.0369, -0.1232, -0.0055, 9.8427
37412.18017578125, 70.99927720828173, 0.0003, -0.0035, 0.0479, -0.1239, -0.0078, 9.8538
37443.985107421875, 71.00458381236089, 0.0012, -0.0008, 0.0339, -0.1233, -0.0051, 9.8397
37476.544189453125, 71.00610071848016, -0.0042, -0.0068, 0.0333, -0.1288, -0.0112, 9.8391
37513.888916015625, 71.00167847358564, -0.0047, -0.0034, 0.0372, -0.1291, -0.0075, 9.8430
37544.347900390625, 71.0144330858295, 0.0040, -0.0008, 0.0446, -0.1206, -0.0049, 9.8505
37580.248046875, 71.00803875930335, -0.0005, -0.0071, 0.0334, -0.1251, -0.0114, 9.8393
37610.698974609375, 71.01208952664219, 0.0028, -0.0006, 0.0295, -0.1218, -0.0049, 9.8354
37645.970947265625, 71.03400705317846, -0.0031, 0.0021, 0.0366, -0.1279, -0.0022, 9.8424
37680.535888671875, 71.02947533889176, -0.0032, 0.0012, 0.0367, -0.1275, -0.0034, 9.8426
37710.64697265625, 71.04197617154102, 0.0028, -0.0015, 0.0138, -0.1212, -0.0057, 9.8197
37747.89208984375, 71.0412455429721, -0.0004, -0.0032, 0.0321, -0.1243, -0.0072, 9.8379
37777.1650390625, 71.07360443277028, -0.0024, -0.0025, 0.0277, -0.1264, -0.0067, 9.8336
37813.875, 71.08362642460783, -0.0014, -0.0055, 0.0265, -0.1254, -0.0091, 9.8324
37845.219970703125, 71.07800125726094, 0.0011, -0.0122, 0.0300, -0.1227, -0.0154, 9.8358
37877.818115234375, 71.0816734450124, -0.0071, -0.0026, 0.0301, -0.1309, -0.0057, 9.8360
37916.1240234375, 71.06989967358375, -0.0043, -0.0075, 0.0304, -0.1284, -0.0108, 9.8363
37944.81494140625, 71.07880504500956, 0.0006, -0.0002, 0.0333, -0.1235, -0.0034, 9.8391
37982.586181640625, 71.07828936338073, -0.0059, -0.0105, 0.0268, -0.1302, -0.0138, 9.8327
38012.715087890625, 71.07942646542116, 0.0021, -0.0052, 0.0325, -0.1223, -0.0085, 9.8384
38048.034912109375, 71.08270873481122, -0.0055, 0.0016, 0.0385, -0.1297, -0.0018, 9.8444
38079.718994140625, 71.07735631848328, -0.0031, 0.0041, 0.0354, -0.1273, 0.0004, 9.8412
38113.37890625, 71.07501266134268, -0.0075, 0.0021, 0.0232, -0.1318, -0.0015, 9.8291
38147.302978515625, 71.08046124909599, 0.0010, -0.0075, 0.0289, -0.1233, -0.0111, 9.8348
38182.80810546875, 71.09092640827554, 0.0023, 0.0069, 0.0382, -0.1220, 0.0033, 9.8441
38213.844970703125, 71.09330353480999, -0.0036, -0.0012, 0.0395, -0.1278, -0.0043, 9.8454
38248.225830078125, 71.09754784501273, -0.0007, -0.0022, 0.0342, -0.1246, -0.0055, 9.8400
38282.39794921875, 71.10278526542331, 0.0009, 0.0039, 0.0330, -0.1230, 0.0004, 9.8388
38315.8349609375, 71.11503750215648, 0.0038, -0.0006, 0.0171, -0.1200, -0.0042, 9.8230
38348.72314453125, 71.11052827766689, 0.0118, 0.0045, 0.0190, -0.1116, 0.0009, 9.8249
38382.692138671875, 71.10483666134164, -0.0008, 0.0028, 0.0213, -0.1239, -0.0007, 9.8272
38414.4609375, 71.10619533072914, -0.0028, -0.0025, 0.0386, -0.1258, -0.0061, 9.8445
38450.032958984375, 71.10674066134274, 0.0014, -0.0002, 0.0280, -0.1214, -0.0037, 9.8339
38481.553955078125, 71.1231092572615, -0.0074, -0.0001, 0.0291, -0.1303, -0.0036, 9.8349
38517.346923828125, 71.12005271032623, -0.0008, -0.0103, 0.0313, -0.1236, -0.0138, 9.8372
38548.9931640625, 71.12182880828259, -0.0097, 0.0045, 0.0256, -0.1326, 0.0009, 9.8315
38583.510986328125, 71.12005450624132, -0.0002, -0.0022, 0.0262, -0.1233, -0.0055, 9.8321
38615.8359375, 71.12931731440348, -0.0065, -0.0002, 0.0268, -0.1294, -0.0034, 9.8327
38650.51513671875, 71.13416352664822, -0.0075, -0.0065, 0.0355, -0.1303, -0.0099, 9.8414
38685.179931640625, 71.1467503103193, 0.0017, 0.0008, 0.0276, -0.1215, -0.0027, 9.8334
38713.679931640625, 71.14458169807911, -0.0008, 0.0091, 0.0391, -0.1242, 0.0057, 9.8450
38752.5087890625, 71.14667885725994, -0.0059, 0.0009, 0.0424, -0.1293, -0.0027, 9.8482
38784.075927734375, 71.15220364909881, 0.0094, 0.0075, 0.0379, -0.1139, 0.0042, 9.8438
38817.7978515625, 71.13065776338107, -0.0255, -0.0120, 0.0232, -0.1484, -0.0153, 9.8291
38851.8330078125, 71.12839087358351, 0.0220, 0.0116, 0.0365, -0.1010, 0.0087, 9.8424
38882.993896484375, 71.12344206542203, -0.0178, -0.0043, 0.0391, -0.1411, -0.0072, 9.8450
38919.544921875, 71.13216176338234, -0.0009, -0.0029, 0.0148, -0.1245, -0.0060, 9.8207
38949.759033203125, 71.13298072664911, 0.0002, -0.0132, 0.0253, -0.1229, -0.0159, 9.8312
38985.73193359375, 71.13467293072853, -0.0109, -0.0051, 0.0271, -0.1348, -0.0079, 9.8330
39018.577880859375, 71.13772400828216, 0.0059, -0.0032, 0.0319, -0.1181, -0.0063, 9.8378
39051.508056640625, 71.13859893073028, 0.0013, -0.0070, 0.0163, -0.1226, -0.0102, 9.8222
39087.050048828125, 71.13439336338546, -0.0010, 0.0135, 0.0282, -0.1248, 0.0105, 9.8340
39119.302001953125, 71.14013950215579, -0.0159, -0.0107, 0.0328, -0.1395, -0.0138, 9.8387
39153.387939453125, 71.13702055522062, 0.0083, 0.0063, 0.0318, -0.1154, 0.0030, 9.8376
39186.642822265625, 71.13235349399623, -0.0039, -0.0160, 0.0365, -0.1275, -0.0190, 9.8424
39219.325927734375, 71.13487626950628, -0.0076, 0.0088, 0.0315, -0.1314, 0.0055, 9.8373
39253.114990234375, 71.1424568082784, 0.0049, 0.0031, 0.0285, -0.1190, 0.0000, 9.8343
39287.424072265625, 71.13528342052561, -0.0051, -0.0118, 0.0288, -0.1290, -0.0148, 9.8346
39318.89013671875, 71.14821097154206, -0.0016, -0.0052, 0.0362, -0.1254, -0.0082, 9.8421
39354.614013671875, 71.14126076746355, 0.0027, 0.0026, 0.0316, -0.1212, -0.0004, 9.8375
39386.69091796875, 71.15357840011718, 0.0018, 0.0006, 0.0376, -0.1221, -0.0030, 9.8435
39422.322998046875, 71.16240289807584, -0.0098, -0.0079, 0.0229, -0.1336, -0.0114, 9.8288
39454.419921875, 71.1612018939906, 0.0072, 0.0011, 0.0319, -0.1167, -0.0022, 9.8378
39487.550048828125, 71.16394506133625, -0.0084, -0.0062, 0.0367, -0.1324, -0.0096, 9.8426
39519.994873046875, 71.15521869399034, 0.0017, -0.0118, 0.0355, -0.1226, -0.0153, 9.8414
39555.090087890625, 71.16243255521984, 0.0058, 0.0047, 0.0301, -0.1185, 0.0012, 9.8360
39588.6279296875, 71.16666447358669, 0.0005, 0.0034, 0.0322, -0.1242, -0.0003, 9.8381
39619.581787109375, 71.17292952664866, -0.0068, -0.0053, 0.0282, -0.1314, -0.0094, 9.8340
39656.838134765625, 71.17155400011582, 0.0024, 0.0016, 0.0234, -0.1220, -0.0027, 9.8292
39688.371826171875, 71.17704426950141, -0.0067, 0.0018, 0.0325, -0.1314, -0.0027, 9.8384
39722.210205078125, 71.17040523276866, -0.0042, -0.0051, 0.0518, -0.1291, -0.0094, 9.8577
39755.982177734375, 71.15778236746075, 0.0022, 0.0064, 0.0322, -0.1226, 0.0019, 9.8381
39790.25390625, 71.15774328174813, -0.0026, 0.0064, 0.0309, -0.1275, 0.0019, 9.8367
39822.469970703125, 71.15433165725528, 0.0027, 0.0014, 0.0340, -0.1223, -0.0031, 9.8399
39856.261962890625, 71.16020818786893, -0.0040, 0.0015, 0.0298, -0.1287, -0.0028, 9.8357
39889.01806640625, 71.14986370624098, 0.0008, 0.0112, 0.0321, -0.1238, 0.0072, 9.8379
39922.766845703125, 71.13771844093515, 0.0001, -0.0072, 0.0301, -0.1246, -0.0114, 9.8360
39957.30615234375, 71.15275450623723, -0.0069, -0.0083, 0.0301, -0.1312, -0.0126, 9.8360
39991.60009765625, 71.15236581236128, -0.0063, 0.0073, 0.0261, -0.1300, 0.0037, 9.8319
40022.97998046875, 71.15398065317757, 0.0040, -0.0032, 0.0392, -0.1197, -0.0067, 9.8451
40056.863037109375, 71.15482622052556, -0.0003, 0.0059, 0.0337, -0.1238, 0.0021, 9.8396
40090.955810546875, 71.1476990939968, -0.0065, -0.0118, 0.0276, -0.1299, -0.0156, 9.8334
40124.447021484375, 71.15740091440418, -0.0064, -0.0029, 0.0282, -0.1296, -0.0066, 9.8340
40155.22509765625, 71.15165391848669, -0.0044, 0.0038, 0.0398, -0.1275, 0.0000, 9.8457
40192.837890625, 71.1504390450127, -0.0039, -0.0011, 0.0415, -0.1267, -0.0052, 9.8473
40221.875, 71.15478604093492, 0.0058, -0.0065, 0.0279, -0.1173, -0.0105, 9.8337
40260.6708984375, 71.16421073480888, -0.0048, -0.0042, 0.0343, -0.1278, -0.0079, 9.8402
40290.423095703125, 71.15981737970401, -0.0089, -0.0041, 0.0192, -0.1320, -0.0076, 9.8251
40325.69091796875, 71.16712860419794, 0.0002, 0.0086, 0.0374, -0.1230, 0.0048, 9.8433
40357.180908203125, 71.16850009807705, -0.0007, -0.0070, 0.0463, -0.1239, -0.0109, 9.8521
40393.616943359375, 71.17987924092812, -0.0001, 0.0076, 0.0258, -0.1236, 0.0036, 9.8316
40424.7509765625, 71.17656099603694, 0.0065, 0.0132, 0.0276, -0.1172, 0.0090, 9.8334
40459.618896484375, 71.17880711031854, -0.0052, -0.0094, 0.0301, -0.1291, -0.0139, 9.8360
40491.895751953125, 71.18243604909449, -0.0007, -0.0120, 0.0286, -0.1243, -0.0162, 9.8345
40526.126953125, 71.1875192082803, 0.0010, 0.0110, 0.0421, -0.1229, 0.0070, 9.8480
40559.794189453125, 71.18234408174791, -0.0006, -0.0010, 0.0307, -0.1243, -0.0049, 9.8366
40593.18896484375, 71.17756257970643, 0.0040, 0.0002, 0.0323, -0.1193, -0.0039, 9.8382
40625.958984375, 71.17770922460427, 0.0008, 0.0136, 0.0301, -0.1224, 0.0096, 9.8360
40659.799072265625, 71.17156194297212, 0.0045, 0.0066, 0.0317, -0.1187, 0.0024, 9.8376
40692.10498046875, 71.17135654705669, -0.0020, -0.0024, 0.0300, -0.1251, -0.0066, 9.8358
40728.620849609375, 71.16720090623652, 0.0025, -0.0037, 0.0341, -0.1205, -0.0076, 9.8400
40760.696044921875, 71.16351405726213, -0.0067, 0.0050, 0.0335, -0.1294, 0.0007, 9.8394
40794.526123046875, 71.1625304899129, -0.0002, -0.0047, 0.0422, -0.1227, -0.0090, 9.8481
40827.31591796875, 71.1647886041936, 0.0059, 0.0022, 0.0313, -0.1166, -0.0019, 9.8372
40857.93505859375, 71.16608355930313, 0.0081, 0.0038, 0.0443, -0.1145, -0.0003, 9.8502
40894.4150390625, 71.16218321644389, -0.0040, -0.0144, 0.0392, -0.1266, -0.0184, 9.8451
40928.969970703125, 71.15923885725847, -0.0020, 0.0033, 0.0328, -0.1243, -0.0007, 9.8387
40960.10791015625, 71.16778685725907, -0.0027, 0.0022, 0.0445, -0.1249, -0.0021, 9.8503
40996.174072265625, 71.1697442368507, 0.0010, -0.0105, 0.0421, -0.1214, -0.0150, 9.8479
41028.510986328125, 71.17451497154393, -0.0030, 0.0030, 0.0304, -0.1251, -0.0013, 9.8363
41061.8349609375, 71.1724147919531, -0.0039, 0.0046, 0.0314, -0.1264, -0.0001, 9.8373
41095.1767578125, 71.18201404093254, -0.0024, -0.0053, 0.0437, -0.1249, -0.0106, 9.8496
41128.968017578125, 71.17690471031617, -0.0084, 0.0037, 0.0295, -0.1308, -0.0015, 9.8354
41159.18408203125, 71.18201711031986, 0.0030, 0.0071, 0.0364, -0.1196, 0.0021, 9.8423
41198.93408203125, 71.18320374705499, -0.0015, -0.0008, 0.0443, -0.1239, -0.0058, 9.8502
41225.14306640625, 71.19123671032133, -0.0067, 0.0026, 0.0382, -0.1294, -0.0025, 9.8441
41265.525146484375, 71.18626555113836, 0.0009, -0.0016, 0.0395, -0.1215, -0.0064, 9.8454
41292.60302734375, 71.19375080827895, -0.0025, -0.0072, 0.0445, -0.1252, -0.0120, 9.8503
41333.071044921875, 71.18379454705318, -0.0097, -0.0038, 0.0401, -0.1329, -0.0084, 9.8460
41362.47412109375, 71.1838750205236, -0.0038, 0.0147, 0.0392, -0.1264, 0.0105, 9.8451
41396.26708984375, 71.19519924909352, 0.0008, 0.0079, 0.0302, -0.1217, 0.0039, 9.8361
41429.588134765625, 71.20434363276024, 0.0035, -0.0016, 0.0298, -0.1193, -0.0057, 9.8357
41463.890869140625, 71.19927735521117, 0.0000, 0.0040, 0.0424, -0.1229, 0.0003, 9.8482
41497.308837890625, 71.20481764908772, -0.0014, -0.0018, 0.0496, -0.1242, -0.0054, 9.8554
41530.30419921875, 71.19733129806941, -0.0088, 0.0023, 0.0326, -0.1318, -0.0013, 9.8385
41563.216796875, 71.19516844909427, -0.0020, 0.0096, 0.0328, -0.1249, 0.0060, 9.8387
41597.5068359375, 71.19305730623648, 0.0029, 0.0077, 0.0383, -0.1200, 0.0042, 9.8442
41631.23828125, 71.19553791847994, -0.0090, -0.0058, 0.0175, -0.1321, -0.0091, 9.8234
41665.10205078125, 71.1988617307177, -0.0031, -0.0002, 0.0361, -0.1263, -0.0039, 9.8420
41699.251953125, 71.19970640011094, 0.0067, -0.0069, 0.0430, -0.1166, -0.0108, 9.8488
41731.091064453125, 71.19746564092726, -0.0099, -0.0145, 0.0298, -0.1330, -0.0181, 9.8357
41762.2060546875, 71.19970660419389, -0.0015, 0.0010, 0.0419, -0.1243, -0.0027, 9.8478
41799.72705078125, 71.20489847358152, 0.0043, 0.0030, 0.0370, -0.1184, -0.0009, 9.8429
41831.3017578125, 71.22051752663764, -0.0089, -0.0010, 0.0398, -0.1315, -0.0051, 9.8457
41866.260009765625, 71.22659094704792, -0.0025, -0.0060, 0.0310, -0.1245, -0.0099, 9.8369
41898.47802734375, 71.2274998531728, -0.0038, -0.0053, 0.0386, -0.1258, -0.0087, 9.8445
41933.199951171875, 71.23825567358114, -0.0040, -0.0005, 0.0338, -0.1261, -0.0040, 9.8397
41964.132080078125, 71.23625551031652, -0.0054, 0.0027, 0.0311, -0.1275, -0.0006, 9.8370
41999.758056640625, 71.23677905317314, 0.0052, 0.0083, 0.0434, -0.1173, 0.0051, 9.8493
42033.57275390625, 71.24762247357513, 0.0005, -0.0023, 0.0238, -0.1220, -0.0054, 9.8297
42065.905029296875, 71.24459579603202, 0.0003, 0.0015, 0.0436, -0.1223, -0.0013, 9.8494
42100.668212890625, 71.24359240011049, -0.0061, 0.0044, 0.0328, -0.1284, 0.0016, 9.8387
42133.598876953125, 71.24388984500771, -0.0031, 0.0032, 0.0379, -0.1251, 0.0007, 9.8438
42166.9619140625, 71.23595928174441, 0.0034, -0.0056, 0.0470, -0.1187, -0.0081, 9.8529
42199.830078125, 71.24265467765836, 0.0002, 0.0057, 0.0368, -0.1218, 0.0028, 9.8427
42234.124755859375, 71.24482253072298, -0.0073, 0.0042, 0.0323, -0.1296, 0.0009, 9.8382
42267.60693359375, 71.23460635112907, 0.0031, -0.0037, 0.0365, -0.1191, -0.0076, 9.8424
42300.119140625, 71.24165348582449, -0.0015, 0.0021, 0.0249, -0.1236, -0.0021, 9.8307
42335.257080078125, 71.23910766541674, -0.0073, 0.0039, 0.0343, -0.1293, -0.0004, 9.8402
42369.973876953125, 71.22355860419276, 0.0023, -0.0080, 0.0398, -0.1197, -0.0123, 9.8457
42399.630126953125, 71.22113560827016, 0.0018, 0.0000, 0.0373, -0.1205, -0.0042, 9.8432
42436.058837890625, 71.21881094705196, -0.0055, 0.0003, 0.0389, -0.1281, -0.0039, 9.8448
42467.89501953125, 71.22188288990941, -0.0076, -0.0038, 0.0329, -0.1302, -0.0079, 9.8388
42501.927001953125, 71.23124120827401, -0.0032, 0.0118, 0.0412, -0.1258, 0.0078, 9.8471
42535.44580078125, 71.22018842460129, 0.0011, 0.0059, 0.0448, -0.1218, 0.0022, 9.8506
42567.660888671875, 71.22423334705339, -0.0056, 0.0041, 0.0398, -0.1287, 0.0006, 9.8457
42601.026123046875, 71.21444888174616, -0.0001, -0.0095, 0.0343, -0.1230, -0.0129, 9.8402
42637.294921875, 71.22272716745995, 0.0042, -0.0016, 0.0515, -0.1187, -0.0048, 9.8574
42669.0107421875, 71.22640960827084, -0.0007, -0.0055, 0.0421, -0.1236, -0.0082, 9.8479
42703.514892578125, 71.23460335521031, 0.0008, 0.0047, 0.0317, -0.1223, 0.0021, 9.8376
42735.374267578125, 71.229350620519, 0.0016, 0.0045, 0.0421, -0.1214, 0.0018, 9.8479
42770.768798828125, 71.23459126541624, -0.0094, 0.0004, 0.0401, -0.1321, -0.0022, 9.8460
42803.561767578125, 71.23901696337401, -0.0059, 0.0011, 0.0334, -0.1287, -0.0012, 9.8393
42836.366943359375, 71.23715382867802, -0.0001, 0.0095, 0.0352, -0.1229, 0.0073, 9.8411
42870.564208984375, 71.24128356745686, 0.0034, -0.0004, 0.0328, -0.1193, -0.0025, 9.8387
42902.114990234375, 71.2420484164364, -0.0012, 0.0070, 0.0358, -0.1240, 0.0052, 9.8417
42936.47412109375, 71.240146751132, 0.0069, 0.0092, 0.0338, -0.1163, 0.0073, 9.8397
42968.588134765625, 71.23921746949406, -0.0101, -0.0106, 0.0361, -0.1333, -0.0126, 9.8420
43003.5859375, 71.24503929807159, -0.0082, 0.0032, 0.0356, -0.1315, 0.0012, 9.8415
43038.734130859375, 71.24572628582308, 0.0097, 0.0094, 0.0322, -0.1134, 0.0075, 9.8381
43070.365234375, 71.24543977970053, 0.0028, -0.0012, 0.0358, -0.1206, -0.0034, 9.8417
43103.64013671875, 71.24139583684632, -0.0015, -0.0010, 0.0475, -0.1251, -0.0031, 9.8533
43134.967041015625, 71.24613148582394, 0.0062, -0.0046, 0.0493, -0.1170, -0.0066, 9.8551
43174.481201171875, 71.25030716745623, 0.0046, -0.0157, 0.0404, -0.1184, -0.0174, 9.8463
43202.958984375, 71.23790933072192, -0.0041, -0.0018, 0.0437, -0.1270, -0.0034, 9.8496
43236.959228515625, 71.23006355113007, -0.0001, 0.0048, 0.0304, -0.1227, 0.0031, 9.8363
43274.045166015625, 71.22444880010981, 0.0039, 0.0153, 0.0446, -0.1185, 0.0132, 9.8505
43305.1640625, 71.23488174704917, -0.0082, -0.0120, 0.0416, -0.1308, -0.0141, 9.8475
43340.529052734375, 71.22716712664098, -0.0054, -0.0085, 0.0440, -0.1276, -0.0103, 9.8499
43373.004150390625, 71.23968682459687, -0.0030, 0.0005, 0.0460, -0.1254, -0.0012, 9.8518
43406.493896484375, 71.23248072663928, -0.0004, -0.0071, 0.0530, -0.1227, -0.0091, 9.8589
43440.954833984375, 71.23515667766341, -0.0041, -0.0084, 0.0530, -0.1267, -0.0108, 9.8589
43472.87109375, 71.23343292255942, -0.0009, 0.0031, 0.0585, -0.1236, 0.0007, 9.8644
43507.774169921875, 71.22614457154285, -0.0066, 0.0004, 0.0516, -0.1294, -0.0022, 9.8575
43541.219970703125, 71.23179007357757, 0.0012, 0.0042, 0.0488, -0.1214, 0.0016, 9.8547
43571.243896484375, 71.23293422052168, -0.0044, 0.0049, 0.0545, -0.1272, 0.0022, 9.8604
43609.080078125, 71.23606414704963, -0.0038, 0.0046, 0.0585, -0.1264, 0.0015, 9.8644
43639.9990234375, 71.23490309398863, -0.0010, 0.0067, 0.0657, -0.1238, 0.0037, 9.8716
43674.6142578125, 71.23869643276005, -0.0056, 0.0027, 0.0484, -0.1287, -0.0003, 9.8542
43708.916748046875, 71.2363466531706, 0.0012, -0.0123, 0.0394, -0.1221, -0.0154, 9.8453
43740.377197265625, 71.2388293552144, 0.0000, 0.0021, 0.0545, -0.1233, -0.0010, 9.8604
43775.592041015625, 71.23700297153714, 0.0058, -0.0057, 0.0460, -0.1173, -0.0087, 9.8518
43805.458984375, 71.23173925725514, -0.0017, 0.0079, 0.0588, -0.1248, 0.0049, 9.8647
43841.779052734375, 71.23943792664153, 0.0052, 0.0019, 0.0487, -0.1178, -0.0012, 9.8545
43873.75, 71.23888077561567, -0.0087, -0.0064, 0.0552, -0.1317, -0.0096, 9.8611
43910.24609375, 71.24311616337722, 0.0040, -0.0036, 0.0497, -0.1196, -0.0066, 9.8556
43940.120849609375, 71.2417795348056, -0.0003, 0.0042, 0.0578, -0.1236, 0.0012, 9.8637
43975.943115234375, 71.2380104572555, 0.0009, 0.0031, 0.0593, -0.1227, 0.0003, 9.8652
44009.764892578125, 71.23788867765914, 0.0059, 0.0068, 0.0671, -0.1182, 0.0037, 9.8729
44039.822021484375, 71.22613109398503, -0.0040, -0.0044, 0.0597, -0.1281, -0.0075, 9.8656
44077.120849609375, 71.23982275929251, -0.0118, -0.0037, 0.0651, -0.1360, -0.0064, 9.8710
44109.1611328125, 71.23334317561753, -0.0011, 0.0120, 0.0626, -0.1255, 0.0091, 9.8685
44144.381103515625, 71.23234235929601, -0.0059, -0.0036, 0.0621, -0.1305, -0.0064, 9.8680
44171.30810546875, 71.22963280011051, -0.0131, -0.0017, 0.0545, -0.1378, -0.0045, 9.8604
44213.947021484375, 71.22930890623397, -0.0010, 0.0022, 0.0532, -0.1257, -0.0006, 9.8590
44239.751953125, 71.2298382939892, -0.0017, 0.0056, 0.0524, -0.1269, 0.0027, 9.8583
44279.760009765625, 71.23145953480335, 0.0025, -0.0024, 0.0590, -0.1229, -0.0054, 9.8649
44308.80078125, 71.22720381235553, 0.0039, -0.0085, 0.0566, -0.1217, -0.0115, 9.8625
44345.446044921875, 71.22887990215075, -0.0005, -0.0025, 0.0557, -0.1260, -0.0055, 9.8616
44376.126953125, 71.22380831847983, 0.0014, -0.0094, 0.0529, -0.1239, -0.0126, 9.8587
44411.28515625, 71.22169545317635, -0.0021, 0.0057, 0.0616, -0.1273, 0.0027, 9.8674
44444.295166015625, 71.22619702868361, -0.0027, 0.0061, 0.0677, -0.1281, 0.0030, 9.8735
44477.6240234375, 71.22229024500751, -0.0080, -0.0109, 0.0587, -0.1335, -0.0142, 9.8646
44506.609130859375, 71.22056671847831, -0.0070, -0.0007, 0.0363, -0.1324, -0.0039, 9.8421
44549.227783203125, 71.21686743685075, 0.0026, 0.0085, 0.0590, -0.1229, 0.0054, 9.8649
44575.097900390625, 71.22038453072213, -0.0079, -0.0089, 0.0590, -0.1335, -0.0121, 9.8649
44615.392822265625, 71.21996645725714, 0.0038, 0.0087, 0.0668, -0.1218, 0.0057, 9.8726
44642.68896484375, 71.21906786950132, 0.0067, 0.0007, 0.0559, -0.1188, -0.0019, 9.8617
44681.779052734375, 71.2140527429652, 0.0082, -0.0015, 0.0601, -0.1172, -0.0042, 9.8659
44710.010986328125, 71.21768385317182, 0.0007, -0.0075, 0.0563, -0.1245, -0.0102, 9.8622
44744.923095703125, 71.2271017633787, -0.0033, 0.0087, 0.0601, -0.1285, 0.0061, 9.8659
44779.781982421875, 71.22010578786661, 0.0006, -0.0047, 0.0550, -0.1246, -0.0075, 9.8608
44814.448974609375, 71.21369937970132, -0.0030, -0.0019, 0.0631, -0.1284, -0.0043, 9.8689
44846.115966796875, 71.20589086542181, 0.0046, 0.0034, 0.0611, -0.1206, 0.0012, 9.8670
44880.619873046875, 71.20658025317564, -0.0044, 0.0033, 0.0536, -0.1297, 0.0010, 9.8595
44912.97314453125, 71.20729271031672, -0.0029, 0.0005, 0.0556, -0.1279, -0.0018, 9.8614
44947.199951171875, 71.1975617143983, 0.0045, -0.0020, 0.0475, -0.1205, -0.0042, 9.8533
44979.8681640625, 71.19036920011327, -0.0015, -0.0012, 0.0619, -0.1267, -0.0033, 9.8677
45012.45703125, 71.19145724093227, -0.0017, -0.0025, 0.0583, -0.1267, -0.0045, 9.8641
45047.14990234375, 71.19009313480667, 0.0021, 0.0020, 0.0674, -0.1226, -0.0001, 9.8732
45080.589111328125, 71.19062612256329, 0.0017, 0.0045, 0.0620, -0.1232, 0.0024, 9.8679
45112.3681640625, 71.19851927358336, -0.0091, -0.0141, 0.0571, -0.1339, -0.0157, 9.8629
45148.660888671875, 71.19095651440152, 0.0036, 0.0014, 0.0548, -0.1212, -0.0001, 9.8607
45179.69189453125, 71.19948837562187, -0.0021, 0.0082, 0.0586, -0.1273, 0.0066, 9.8644
45215.85595703125, 71.19562647358363, 0.0025, -0.0047, 0.0620, -0.1230, -0.0066, 9.8678
45247.0849609375, 71.20000812256382, -0.0032, -0.0138, 0.0538, -0.1285, -0.0157, 9.8596
45281.84912109375, 71.20099819603168, -0.0003, -0.0008, 0.0563, -0.1261, -0.0025, 9.8622
45312.38720703125, 71.19597282460833, -0.0007, 0.0005, 0.0476, -0.1267, -0.0015, 9.8535
45351.843017578125, 71.1940342776665, 0.0004, 0.0010, 0.0542, -0.1255, -0.0010, 9.8601
45380.857177734375, 71.20298842460382, -0.0001, 0.0010, 0.0645, -0.1257, -0.0010, 9.8704
45415.652099609375, 71.20146218787167, 0.0020, 0.0016, 0.0595, -0.1239, -0.0003, 9.8653
45449.77685546875, 71.20445086542145, -0.0009, 0.0019, 0.0485, -0.1267, 0.0001, 9.8544
45482.510986328125, 71.21570270215209, 0.0072, 0.0040, 0.0598, -0.1184, 0.0025, 9.8656
45516.516845703125, 71.21329386949897, -0.0081, -0.0088, 0.0589, -0.1336, -0.0106, 9.8647
45549.502197265625, 71.20408407358475, 0.0028, 0.0006, 0.0529, -0.1230, -0.0015, 9.8587
45578.818115234375, 71.2152237307238, 0.0009, -0.0041, 0.0554, -0.1246, -0.0061, 9.8613
45619.77783203125, 71.2168251511283, -0.0025, -0.0030, 0.0596, -0.1279, -0.0054, 9.8655
45648.4619140625, 71.21666685725882, -0.0046, 0.0071, 0.0616, -0.1297, 0.0045, 9.8674
45685.566162109375, 71.21189824500983, -0.0019, -0.0192, 0.0487, -0.1270, -0.0215, 9.8545
45715.406005859375, 71.19969194297445, 0.0019, 0.0065, 0.0568, -0.1230, 0.0040, 9.8626
45749.20703125, 71.1946819184739, -0.0133, -0.0052, 0.0502, -0.1386, -0.0075, 9.8560
45785.197021484375, 71.19203262868493, 0.0020, -0.0042, 0.0548, -0.1233, -0.0066, 9.8607
45817.087890625, 71.18908991848326, 0.0001, 0.0018, 0.0571, -0.1251, -0.0003, 9.8629
45852.215087890625, 71.19107371439962, -0.0053, -0.0048, 0.0572, -0.1306, -0.0072, 9.8631
45884.22802734375, 71.17693418787402, -0.0003, 0.0016, 0.0533, -0.1257, -0.0006, 9.8592
45916.770263671875, 71.18254160011264, 0.0037, 0.0013, 0.0650, -0.1220, -0.0007, 9.8708
45952.508056640625, 71.18327270215302, -0.0003, 0.0048, 0.0574, -0.1258, 0.0028, 9.8632
45985.9248046875, 71.18108254705359, -0.0072, 0.0032, 0.0614, -0.1326, 0.0010, 9.8673
46019.255859375, 71.17590717562693, -0.0029, -0.0160, 0.0499, -0.1284, -0.0181, 9.8557
46052.406982421875, 71.17637746950324, -0.0087, -0.0042, 0.0514, -0.1341, -0.0063, 9.8572
46084.697998046875, 71.18166079195302, 0.0117, 0.0048, 0.0547, -0.1140, 0.0024, 9.8605
46118.014892578125, 71.17811652256405, 0.0044, 0.0004, 0.0541, -0.1214, -0.0019, 9.8599
46153.585205078125, 71.17396063685335, -0.0021, -0.0040, 0.0517, -0.1281, -0.0060, 9.8575
46181.901123046875, 71.18394449807288, 0.0071, 0.0027, 0.0529, -0.1190, 0.0004, 9.8587
46221.93212890625, 71.17802142868302, -0.0019, 0.0113, 0.0611, -0.1279, 0.0090, 9.8670
46251.8359375, 71.18977638379039, 0.0002, -0.0103, 0.0526, -0.1258, -0.0123, 9.8584
46288.35986328125, 71.18722023685162, -0.0066, -0.0005, 0.0524, -0.1321, -0.0022, 9.8583
46318.27197265625, 71.18333842460656, -0.0011, 0.0036, 0.0493, -0.1269, 0.0018, 9.8551
46355.472900390625, 71.1902034450129, 0.0050, -0.0018, 0.0544, -0.1208, -0.0034, 9.8602
46385.721923828125, 71.19187327358283, 0.0084, -0.0011, 0.0454, -0.1172, -0.0027, 9.8512
46421.115966796875, 71.19091637562691, -0.0013, 0.0002, 0.0518, -0.1273, -0.0016, 9.8577
46454.0458984375, 71.18787820419548, -0.0020, -0.0030, 0.0451, -0.1284, -0.0051, 9.8509
46488.69287109375, 71.19392224501087, -0.0019, -0.0120, 0.0435, -0.1285, -0.0142, 9.8493
46521.27587890625, 71.18330955929689, 0.0076, 0.0045, 0.0625, -0.1191, 0.0019, 9.8683
46554.376953125, 71.18091394297299, 0.0023, -0.0097, 0.0559, -0.1245, -0.0124, 9.8617
46588.548828125, 71.17874569807036, 0.0030, 0.0120, 0.0704, -0.1240, 0.0091, 9.8762
46620.864990234375, 71.1801625144013, 0.0061, 0.0007, 0.0526, -0.1209, -0.0019, 9.8584
46655.657958984375, 71.1778990858287, -0.0037, 0.0026, 0.0450, -0.1309, -0.0003, 9.8508
46686.7529296875, 71.18245049807336, 0.0012, 0.0042, 0.0521, -0.1258, 0.0016, 9.8580
46722.5830078125, 71.17144378787007, 0.0089, 0.0020, 0.0599, -0.1176, -0.0004, 9.8658
46753.653076171875, 71.18303840827944, -0.0016, -0.0070, 0.0551, -0.1281, -0.0093, 9.8610
46790.635986328125, 71.18525903685035, -0.0008, -0.0057, 0.0590, -0.1275, -0.0076, 9.8649
46821.025146484375, 71.18877111031829, -0.0058, 0.0016, 0.0553, -0.1321, -0.0004, 9.8611
46855.084228515625, 71.17877804909666, 0.0036, -0.0009, 0.0500, -0.1226, -0.0031, 9.8559
46890.8349609375, 71.18253593480841, -0.0023, -0.0033, 0.0451, -0.1284, -0.0057, 9.8509
