timestamp , luminance, accX, accY , accZ, accXwithG, accYwithG, accZwithG
975.875, 60.13787971434102, 2.8845, -4.5274, 2.4589, 2.8427, -4.5544, -7.3477
996.845947265625, 76.31323460407573, 2.7986, -3.5048, 1.4745, 2.6362, -3.8687, -8.3240
1012, 74.7119050448486, 1.1881, -3.5168, -0.5330, 0.6408, -4.8296, -10.2360
1029.7138671875, 74.173027289842, 0.5751, -3.7800, -1.9274, -0.2400, -5.3353, -11.5755
1067.93798828125, 73.62086573871768, -1.4713, -0.2613, -10.4177, -3.1153, -2.1620, -19.8969
1099.97607421875, 78.92060589383162, -1.9581, 1.7388, -10.6372, -3.7882, -0.2526, -20.0636
1133.06689453125, 88.57057631017153, -1.5225, 1.5939, -4.0664, -3.2540, -0.5224, -13.4841
1166.2060546875, 88.00769464487547, 0.8249, 1.0712, 3.5651, -0.6624, -0.9189, -5.9216
1202.78076171875, 81.35776503665929, 1.9834, 1.5906, 5.9782, 0.4615, -0.2090, -3.5410
1232.012939453125, 79.48568722440274, 1.6601, 1.7024, 6.1950, 0.0123, -0.0022, -3.3208
1268.23193359375, 79.19149615500021, 1.3029, 1.9362, 8.1248, -0.2423, 0.3509, -1.4287
1299.437255859375, 77.8305984243719, 0.5086, 1.9951, 6.6062, -0.9141, 0.4004, -2.9648
1332.4189453125, 77.38299804886597, -0.2987, 2.6302, 3.7924, -1.7959, 1.0035, -5.7618
1366.2119140625, 76.93264315092664, -1.9229, 2.0274, 0.0659, -3.4254, -0.0862, -9.3917
1399.31787109375, 76.41990375510173, -2.6372, 1.2350, -0.6883, -4.0677, -0.9402, -10.1430
1434.18701171875, 76.4085599755149, -2.5368, 2.2876, -9.3639, -4.5497, 0.1981, -18.7315
1465.594970703125, 76.6276337551652, -3.9803, 2.3303, -10.1766, -6.2152, 0.3352, -19.5144
1498.146240234375, 77.03783247345801, -3.5648, 0.9504, -5.7030, -6.0777, -0.9257, -14.9947
1535.496826171875, 76.40435885719803, 0.7872, -4.5010, 5.6733, -1.3918, -5.8469, -3.7930
1566.01708984375, 75.76963717556538, 3.7668, -4.3806, 6.0832, 1.3189, -5.1658, -3.3805
1597.550048828125, 75.9538054285303, 4.2209, -4.2929, 5.9161, 1.6267, -4.8767, -3.5232
1633.36279296875, 75.52388902038967, 5.6898, -5.1449, 6.6863, 3.6097, -5.3189, -2.8956
1667.07373046875, 74.88352177958332, 5.5471, -4.8423, 4.1083, 4.0374, -4.9795, -5.5804
1700.534912109375, 74.29054701223396, 3.5515, -3.0434, -1.7720, 1.9655, -3.5074, -11.4384
1734.135009765625, 73.82700163263019, 1.9920, -2.5949, -3.6360, 0.3488, -3.8042, -13.2281
1767.05810546875, 74.09312720814391, 2.8961, -6.4100, -14.4551, 0.6464, -8.3613, -23.7987
1801.9619140625, 74.54159566526694, -1.2908, -0.6043, -19.3229, -5.6642, -3.1550, -27.7216
1832.419921875, 145.14447231022325, -5.0236, 4.0203, -16.4352, -10.5141, 0.9816, -23.9712
1868.082275390625, 155.42677949382292, 0.0397, 1.6908, -2.7095, -6.4027, -1.9222, -9.1602
1899.9228515625, 113.6544453959329, 5.3761, 3.6057, -0.3254, -2.4177, -0.5587, -4.5779
1932.77294921875, 82.07614656322608, 7.0524, 5.3019, 1.7010, -1.2258, 0.9022, -1.1772
1966.856201171875, 82.91605482460864, 8.1886, 6.6951, 1.3542, -0.2957, 1.8802, 2.3560
1999.5380859375, 82.18426384486553, 8.4566, 7.0112, 0.5066, 0.1818, 2.1694, 2.5694
2032.76513671875, 80.01427124081167, 6.7102, 7.3185, -0.2134, -1.5392, 2.4986, 1.9974
2065.016845703125, 77.50897495514552, -0.3413, 6.7246, 1.0850, -8.5295, 1.8607, 3.4233
2098.94384765625, 75.9045809958438, -1.1999, 6.2613, 2.0312, -9.3600, 1.3451, 4.3580
2134.580078125, 75.65497615510863, 0.1245, 0.3133, 1.2115, -8.0924, -4.7024, 3.0813
2166.375, 73.95752008979687, -5.6255, -0.7945, -1.2128, -13.8638, -5.6674, 0.9215
2200.6220703125, 73.85361566527828, -14.6401, -1.9632, 3.3217, -22.8341, -6.4034, 6.3735
2234.742919921875, 73.79206909387334, -5.5009, -2.4468, 2.1051, -13.5573, -6.7222, 5.7088
2267.464111328125, 73.90142125715818, 3.2409, -1.9367, 1.4470, -4.8631, -5.8439, 5.3494
2300.26123046875, 74.23090753466747, 7.4012, -1.3512, 1.2800, -0.9415, -4.8804, 5.0370
2334.031005859375, 73.97445586120617, 8.3951, -0.3671, -1.0160, -0.1140, -3.6497, 2.5881
2368.198974609375, 74.2694853632398, 8.9555, -0.2503, -3.2324, 0.3768, -3.2905, 0.4191
2399.9501953125, 74.48150234285463, 7.6247, -1.0959, -2.4148, -1.2074, -3.9527, 0.7479
2434.944091796875, 74.46070968162913, 7.3441, -1.3398, -1.4287, -1.8112, -4.2303, 0.5704
2465.916015625, 74.30820231837974, 1.6438, -0.1105, -1.1852, -7.6999, -3.0845, -1.0398
2502.15673828125, 74.19061117552602, -4.5827, -6.5135, -1.5644, -13.6924, -9.4968, -3.6343
2532.375, 74.08213765716509, -13.7667, -7.7792, -9.0505, -22.4838, -10.5472, -12.5890
2567.178955078125, 73.68306100409643, -15.2831, -3.3705, -8.7476, -23.7337, -6.1739, -12.8584
2599.540771484375, 73.94189671838038, -8.3372, -1.7574, -3.0556, -16.0208, -4.5506, -8.4714
2630.19384765625, 73.90401648980135, -0.7514, -0.1755, 0.3229, -7.5468, -2.8653, -6.2161
2669.84912109375, 73.79981412246585, 4.0766, 1.8348, 4.0413, -1.7526, -0.6814, -3.4327
2699.9140625, 74.00369659591917, 5.4373, 2.6052, 8.4876, 0.6191, 0.3937, 0.2375
2733.742919921875, 75.16943019590836, 5.2771, 3.8227, 10.6059, 1.4415, 2.0038, 1.7657
2768.23095703125, 73.55299244082417, 2.8239, 4.3257, 12.5041, -0.0904, 2.8314, 3.2605
2798.955078125, 73.64029928985914, 1.8614, 3.9433, 12.6458, -0.8172, 2.6173, 3.3056
2835.135986328125, 72.95216333068939, -2.0318, 5.3984, -0.5945, -5.3314, 4.6052, -9.7953
2864.233154296875, 73.67412266944812, -5.9144, 4.4175, -2.4146, -9.6403, 3.6881, -11.4566
2902.050048828125, 72.88510093880323, -6.6223, 2.6342, -13.5618, -10.8659, 2.1219, -22.3879
2933.302001953125, 72.39744480000579, -5.6831, 1.1238, -15.6999, -10.5946, 0.7973, -24.1817
2966.690185546875, 73.1199948653077, -6.2837, -1.8194, -6.7422, -11.6228, -1.9965, -14.9662
3001.01904296875, 73.4466298693838, -2.1832, -3.7343, -0.1251, -7.2872, -3.5835, -8.4975
3032.35400390625, 72.64677844086127, 1.6307, -4.5624, 3.1886, -3.3649, -4.2591, -5.2448
3068.130126953125, 72.82867402457377, 7.0493, -5.4913, 7.1879, 2.0782, -4.4617, -1.2025
3102.047119140625, 71.32392173882837, 9.2291, -5.4824, 5.9719, 4.2350, -3.9657, -2.3305
3132.585205078125, 69.79261099596032, 9.5487, -6.7272, 5.8442, 4.5559, -5.0437, -2.4267
3168.9140625, 69.9945444816249, 9.6322, -5.7029, -0.5488, 4.3292, -3.3297, -8.4491
3198.93994140625, 70.22106799186473, 2.1503, -3.0933, -5.7655, -3.9130, -1.1081, -13.2130
3235.734130859375, 71.61828723267519, -3.8698, -3.8273, -9.8900, -10.3608, -2.4479, -17.1105
3264.202880859375, 73.6234465469411, -12.3127, 1.3837, -20.7160, -19.4236, 2.3378, -27.4015
3298.660888671875, 101.63920216325278, -16.9547, 5.6934, -18.1100, -24.1847, 5.9773, -24.7294
3334.212890625, 107.13668226123184, -5.2739, 3.3095, -5.8654, -11.3262, 2.9128, -13.5714
3369.401123046875, 80.82610446530343, 0.8983, 2.1930, -1.4090, -3.9747, 1.3119, -9.8735
3397.72802734375, 76.60873262041893, 3.3633, 4.0369, 3.1845, -1.1745, 2.5082, -5.3736
3432.70703125, 77.66337234279861, 5.1182, 5.5333, 6.9353, 0.4489, 3.7294, -1.4976
3468.169921875, 77.15386679182913, 4.4739, 6.5578, 14.0891, -0.2996, 4.0583, 5.8954
3499.464111328125, 79.86105488975764, 4.9704, 7.4112, 13.9955, 0.1800, 4.6488, 5.8966
3533.945068359375, 92.05743466121659, 4.9748, 8.5068, 13.6546, 0.1170, 5.3867, 5.7277
3567.339111328125, 98.60082089795688, 2.6797, 9.2402, 8.0823, -2.3308, 6.1140, 0.2533
3600.57421875, 79.65877307755007, -1.0220, 5.7330, 3.0232, -6.3027, 2.9051, -4.7413
3634.413818359375, 73.3968878612339, -11.1876, 5.1960, -18.5589, -17.1233, 3.0771, -26.0721
3665.929931640625, 77.3460544978899, -13.8036, 5.0623, -21.9157, -20.2365, 3.1093, -29.0553
3698.5908203125, 74.68278914280341, -14.5888, -3.1507, -6.0906, -20.8213, -4.9756, -13.4388
3733.15478515625, 74.43725702855137, -5.8063, -4.7155, -3.2202, -11.6539, -6.4926, -10.8894
3766.499267578125, 71.04914397556915, 2.4839, -4.6891, 5.0981, -2.9155, -6.4637, -2.8935
3799.34521484375, 67.37242795101173, 6.0392, -2.6457, 7.7370, 0.9819, -4.4136, -0.4769
3833.69189453125, 74.51525160815271, 9.6541, -2.1929, 9.4277, 4.9464, -3.8654, 0.9891
3866.6201171875, 72.6657878286188, 9.9914, -2.2183, 9.1071, 5.3259, -3.8909, 0.6451
3900.3330078125, 72.24933091433746, 9.0210, -2.0620, 9.0729, 4.4567, -3.7638, 0.5617
3932.738037109375, 65.39914686529295, 6.5449, -1.8955, 0.4874, 2.0717, -3.6202, -8.0676
3967.06591796875, 66.92514922448544, 4.4789, -6.3737, -11.4030, -0.2295, -8.2506, -19.7981
3997.77294921875, 58.598132987736925, -1.8075, -6.3774, -24.6133, -7.1637, -8.3989, -32.5754
4033.630126953125, 77.86840376325574, -14.5128, 0.6482, -16.0647, -20.1397, -2.0367, -23.6344
4066.205078125, 63.5120350611666, -3.3212, 0.8829, -6.7102, -7.8587, -2.1054, -14.8743
4100.26513671875, 71.44419786125957, 2.1053, -0.1518, 3.2133, -1.6176, -3.2738, -5.3051
4136.43798828125, 76.38741733061599, 4.2432, 3.3943, 5.5745, 0.4416, 0.3072, -2.9218
4163.400146484375, 60.796706693832654, 3.4467, 4.6346, 7.7357, -0.7217, 1.5698, -0.5951
4215.72607421875, 60.38741175506309, 2.1114, 5.4058, 10.4791, -2.0262, 2.3490, 2.1301
4233.355224609375, 65.22773592649278, 1.4574, 6.4467, 11.3214, -2.3659, 3.3739, 2.8296
4265.81103515625, 80.67227217960182, 1.0283, 6.5623, 11.3062, -2.6962, 3.5249, 2.7580
4298.657958984375, 75.51746223672812, -1.2732, 8.4012, 3.7992, -4.8327, 5.5553, -4.8842
4333.872802734375, 71.51669075107506, -3.8694, 5.3357, -0.6864, -7.2076, 2.5645, -9.4812
4365.172119140625, 67.25106693876322, -4.3317, 2.0898, -4.7021, -7.6596, -0.3478, -13.5989
4399.469970703125, 74.11819522448032, -3.9147, 0.9632, -7.6546, -7.4093, -1.0288, -16.5983
4433.73095703125, 66.997689208142, -9.3692, 1.8912, -12.7727, -13.6887, 1.0647, -21.5379
4467.425048828125, 66.65716560813979, -5.0501, -0.6147, -6.0700, -8.9153, -0.9873, -15.0751
4501.35107421875, 61.56927471831702, 0.8526, -3.9229, -0.5386, -2.4967, -3.8328, -9.7552
4531.6240234375, 56.0435489306243, 3.9299, -4.7584, 1.9097, 0.7510, -4.4204, -7.3613
4568.678955078125, 69.91724453063533, 8.4996, -6.8486, 3.6991, 5.6568, -6.2519, -5.6675
4599.783935546875, 70.57912240001954, 9.0307, -7.5654, 5.7902, 6.3276, -7.1667, -3.6281
4635.94677734375, 64.95832412242397, 6.8671, -5.6319, 6.8726, 4.4641, -5.5875, -2.6350
4665.781982421875, 58.94989963256079, 6.1018, -4.6853, 6.3879, 3.8009, -4.8429, -3.1437
4700.90771484375, 76.90887639188881, 2.5830, -0.4421, 0.1955, 0.1423, -1.6777, -9.2219
4732.661865234375, 75.45565630203296, 3.0076, -2.0563, 0.6625, 0.6889, -3.6905, -8.7249
4767.64501953125, 70.69738536331799, 4.6553, -2.1041, -18.6072, 1.8524, -3.7908, -27.8522
4798.613037109375, 71.13779381225451, 1.1956, 4.5062, -23.7695, -1.9767, 2.7370, -32.8787
4833.240234375, 72.60387508571439, -2.2307, 3.8133, -7.8498, -4.6377, 1.7630, -17.1328
4867.72412109375, 73.60197433471065, -1.4840, 3.1125, 0.3592, -3.4625, 0.9644, -9.0025
4899.5400390625, 72.64134535515117, -3.3421, 3.4917, 5.2851, -5.5041, 1.3048, -4.0269
4934.27197265625, 73.49062642448642, -2.9646, 3.9714, 9.2240, -4.9883, 1.8404, -0.1320
4965.451904296875, 74.63136297139457, -0.9002, 4.4252, 10.0170, -2.6291, 2.3607, 0.5873
5002.092041015625, 74.71625963264016, -0.6724, 4.6481, 11.8260, -2.4548, 2.5458, 2.4147
5029.64306640625, 74.5661151347176, -1.0355, 4.6350, 12.4456, -2.8727, 2.5774, 3.0349
5067.7939453125, 74.75660844082054, -2.6483, 5.9639, 4.5659, -4.8117, 3.9784, -4.7908
5098.91796875, 75.48230647341651, -5.5967, 3.5450, 1.8385, -7.8422, 1.5924, -7.5058
5134.368896484375, 74.65657307752544, -3.3567, 1.5340, -17.5762, -5.4630, 0.5324, -27.1015
5164.508056640625, 75.38771924894718, -2.0465, 1.6623, -20.5907, -4.4513, 0.9599, -30.0719
5197.55810546875, 76.00067331431708, -6.0363, 1.3603, -14.1880, -9.2109, 0.6862, -23.4421
5235.7861328125, 75.42592994283542, -1.5589, -1.8267, 1.5481, -4.8080, -2.6365, -7.6692
5264.73291015625, 74.90139240817548, 3.3048, -1.2430, 6.0143, -0.1514, -2.0879, -3.1241
5300.423095703125, 75.49558077546786, 7.0609, -1.1074, 7.4161, 3.3881, -1.9698, -1.6358
5334.4228515625, 72.30644910212908, 8.6668, -2.5667, 9.4981, 4.8514, -3.4655, 0.5089
5363.284912109375, 75.36325204077356, 9.1539, -3.2639, 9.1650, 5.2883, -4.1412, 0.1951
5401.491943359375, 75.23364484892954, 8.0052, -2.6577, 6.7832, 4.0591, -3.5008, -2.1548
5430.399169921875, 74.59477542039131, 5.8746, -1.3075, -3.5603, 1.8084, -2.3185, -12.4268
5466.883056640625, 75.58438033467561, 3.7000, -3.1558, -8.8509, -0.4378, -4.5322, -17.6346
5498.51708984375, 75.89831031019575, 1.2285, -5.1087, -14.3158, -3.0191, -6.6173, -23.0252
5535.8388671875, 90.67620524082727, -6.1736, -1.1284, -15.8268, -10.6546, -2.9944, -24.3478
5565.47509765625, 124.30396973061958, -5.9533, -0.9533, -9.7504, -9.9536, -3.0330, -18.4591
5601.720947265625, 122.9477708734647, -1.9983, -2.2898, -1.5511, -5.4700, -4.4637, -10.4613
5633.4228515625, 103.06108647343233, -0.0329, 1.7520, 2.0461, -3.4952, -0.5709, -6.8301
5666.482177734375, 95.3786557877305, -0.4957, 3.5645, 7.6828, -4.0341, 0.7829, -1.0300
5701.028076171875, 123.12787693880482, 0.7287, 4.5515, 11.1602, -2.7039, 1.4117, 2.5272
5731.10302734375, 96.77527835102106, 1.3994, 7.1918, 9.8632, -2.1964, 3.6937, 1.4368
5768.072998046875, 119.7275921469718, 0.5971, 9.6146, 7.4741, -3.1409, 5.8098, -0.7552
5798.596923828125, 119.38843683263859, 1.3844, 10.2482, 5.5509, -2.1516, 6.2896, -2.6951
5835.590087890625, 94.94547031835141, 0.5832, 6.4930, 1.4018, -2.6085, 2.5546, -6.9930
5864.295166015625, 122.0296498286234, -0.1399, 2.5628, -6.8630, -3.4448, -0.8661, -15.4357
5896.973876953125, 123.98703084903327, -0.5838, 1.3329, -9.9931, -4.1007, -1.6964, -18.6317
5932.073974609375, 102.49350761632688, -11.0813, -1.3022, -11.6174, -15.6591, -3.1656, -20.0875
5967.075927734375, 84.51683611425383, -7.6758, -4.9729, -2.1685, -11.8345, -6.2068, -10.9635
5999.73583984375, 79.22847093059234, 0.2757, -6.5207, 4.5616, -3.5862, -7.2042, -4.4267
6033.407958984375, 76.96797184489934, 3.3625, -6.0152, 5.6148, -0.4295, -6.3104, -3.4243
6066.360107421875, 75.78429444895103, 6.4506, -6.0691, 5.8414, 2.6740, -6.1643, -3.2084
6101.927001953125, 74.4069542366681, 9.0645, -7.1649, 7.3991, 5.1264, -7.3520, -1.5802
6133.458984375, 73.84219200821458, 6.8907, -5.0846, 4.5896, 2.8428, -5.6101, -4.3272
6167.52099609375, 73.26791524074918, 4.5908, -3.4280, -1.5163, 0.7096, -4.7751, -10.4209
6199.695068359375, 73.74507591836534, 4.8725, -3.3767, -6.6912, 1.2213, -5.1626, -15.6159
6235.343017578125, 74.83157172246126, 9.6219, -6.9708, -14.8312, 6.5715, -10.0758, -23.6190
6265.988037109375, 77.92767227754021, -0.2916, 2.4152, -18.7939, -4.3139, -1.0877, -27.0232
6297.81201171875, 87.05204007344209, -8.0787, 5.8693, -15.8144, -12.2472, 2.2365, -23.9136
6334.465087890625, 99.2201387346763, -1.4933, 3.3505, -0.2528, -4.4680, -0.3573, -8.8303
6365.60693359375, 85.9291053387746, -0.1720, 4.7348, 4.7428, -2.7897, 1.1346, -3.9955
6398.48828125, 81.35817834282871, -0.5918, 5.4006, 7.4338, -3.1906, 1.8649, -1.3364
6432.89501953125, 83.36253753467194, -0.1320, 7.0466, 9.2388, -2.5805, 3.6826, 0.3585
6467.3310546875, 78.41523471832532, 0.3475, 8.6758, 9.6213, -1.6508, 5.6057, 0.5245
6497.260009765625, 75.7423914366674, -1.2358, 7.5945, 11.6965, -3.1793, 4.6289, 2.5533
6533.294921875, 75.18453034275014, -2.9606, 6.9131, 5.0630, -5.0347, 4.5898, -4.2359
6566.3349609375, 74.66122781222681, -2.5029, 5.4530, -0.5016, -4.7600, 3.3462, -9.8095
6599.890869140625, 74.53098102041743, -0.7539, -2.2738, -7.4783, -3.3890, -3.9266, -16.7786
6633.14697265625, 74.17745281633759, -10.5853, 0.0578, -22.8999, -15.0881, -0.7102, -31.5777
6667.919921875, 76.13411004081517, -11.1905, -2.1955, -9.4802, -15.8852, -2.8865, -18.0623
6700.23779296875, 80.00718395918625, -0.3466, -4.0895, -0.0468, -4.7672, -4.6795, -8.7807
6733.06005859375, 73.97957847348563, 3.4810, -4.2698, 4.9670, -1.1096, -4.7811, -3.6838
6767.968017578125, 74.57465105304586, 5.2570, -4.9039, 7.2088, 0.2587, -5.2874, -1.2197
6798.45703125, 74.30302182038498, 5.4210, -5.0099, 7.8325, 0.2737, -5.3697, -0.5070
6836.01611328125, 74.04509333064478, 7.2855, -5.0503, 7.5692, 2.1063, -5.5396, -0.7438
6866.15283203125, 72.89606393470358, 7.5783, -4.7104, 6.3638, 2.3878, -5.3323, -1.9333
6902.9580078125, 73.05900598368741, 4.5865, -3.4203, -4.6280, -0.8939, -4.6627, -12.6649
6930.218994140625, 73.78274217953293, 3.9618, -3.2662, -6.1197, -1.5872, -4.8433, -14.0501
6968.217041015625, 76.7813772734513, 0.5633, -4.3074, -17.8495, -5.2081, -6.6313, -25.4297
6997.409912109375, 76.31877053061123, -5.1932, 1.2217, -18.9698, -11.1700, -1.2815, -26.3307
7036.60009765625, 87.90119333873814, -6.7827, 2.8283, -5.5139, -11.8182, -0.1758, -13.3745
7064.10888671875, 83.68480302038503, 0.0430, 0.8187, 2.0120, -3.7327, -2.2073, -6.5178
7100.614013671875, 76.82754911834662, 4.1909, 2.9212, 2.8535, 0.8571, 0.0717, -5.9179
7131.337890625, 75.50345628568863, 3.9463, 3.6545, 3.6393, 0.5863, 0.8487, -5.1362
7166.94189453125, 75.4642474448658, 1.4530, 5.2919, 8.7803, -1.7567, 2.5994, -0.0863
7199.406982421875, 74.43715881634871, 1.0323, 5.7175, 10.4341, -2.0434, 3.0559, 1.5107
7234.64306640625, 73.55105376329611, -0.2843, 7.4898, 7.3477, -3.1922, 4.9802, -1.6753
7266.85107421875, 73.57985014698099, -2.1900, 6.7116, 3.5338, -5.0896, 4.2949, -5.5173
7301.72998046875, 73.75344460412019, -4.0423, 0.9470, -1.5968, -6.7437, -1.4123, -10.7241
7331.02294921875, 72.78462785309776, -3.9997, -0.4106, -11.6504, -6.8558, -2.4802, -20.8008
7368.843017578125, 72.65642055515046, -7.7029, 0.4865, -18.8294, -11.1564, -1.2068, -27.8503
7395.0419921875, 72.70044382856771, -10.8823, 0.6398, -14.9401, -14.4846, -1.0530, -23.9027
7435.85791015625, 73.41632370616524, -2.4330, -2.6264, 0.3896, -5.2853, -4.1120, -8.8747
7465.255859375, 71.99317164088893, 0.4920, -2.5641, 3.6537, -2.2342, -3.9322, -5.6665
7501.464111328125, 71.9991995510716, 5.2481, -2.1611, 8.4496, 2.2983, -3.2702, -0.8369
7533.48876953125, 71.2552364898536, 6.7371, -2.7083, 9.4290, 3.5590, -3.6154, 0.1960
7567.22607421875, 70.41026697148465, 7.7178, -3.3651, 8.0780, 4.2775, -4.1444, -1.0723
7601.492919921875, 69.77363106937109, 6.3290, -3.9565, 3.4042, 2.6107, -4.8132, -5.6297
7632.628173828125, 71.15050860411175, 5.7418, -3.8932, 1.8558, 1.9612, -4.9077, -7.1358
7668.48095703125, 71.37498643272107, 3.3235, -2.8196, -4.8906, -0.2171, -4.8703, -13.8029
7700.5869140625, 71.30429515919948, 0.3235, -6.3851, -19.4090, -3.5953, -8.9540, -28.0237
7732.295166015625, 72.70914208979596, -1.6130, -3.3422, -20.4046, -5.9424, -6.1142, -28.7559
7769.887939453125, 96.91118341223134, -4.4395, 0.9900, -10.8753, -8.3637, -2.1703, -19.2886
7798.3271484375, 99.38759569795259, 2.7562, 1.7046, -0.9591, -0.4980, -1.4717, -9.6477
7832.01611328125, 91.79075471021261, 3.2684, 3.1674, 0.1875, 0.0739, 0.0094, -8.5299
7865.900146484375, 94.00830192657105, -0.1783, 6.1437, 6.5354, -3.4875, 2.8446, -2.0864
7899.35595703125, 107.43940807345504, 0.1182, 6.4343, 10.1016, -2.5612, 3.0637, 1.2908
7933.34814453125, 96.15077590207216, -0.5524, 6.0958, 10.2345, -2.7481, 2.6799, 1.3081
7966.916015625, 79.35902832650466, -1.9015, 6.1608, 8.7679, -4.1661, 2.7421, -0.1402
7999.56103515625, 78.44056937950407, -2.6584, 6.9829, 5.1881, -4.7802, 3.5958, -3.7671
8032.18701171875, 76.77933003260642, -2.6992, 6.3747, 4.4603, -4.6540, 3.0110, -4.5417
8066.6162109375, 74.72851333874979, -5.2861, 2.9121, -9.3233, -7.8563, 0.1185, -18.3655
8099.764892578125, 74.46040616324709, -9.7471, 2.0353, -14.4019, -13.1089, -0.1535, -23.3505
8135.430908203125, 73.967439306158, -6.5424, -2.0261, -8.7262, -9.8442, -3.6989, -17.8075
8165.26611328125, 73.42321702864938, -2.5994, -4.2669, -5.6917, -5.8840, -5.6989, -14.8203
8200.89599609375, 72.11354608170073, 3.8457, -6.4609, 1.3762, 0.1025, -7.1516, -7.6616
8230.449951171875, 72.03318488169064, 4.7681, -6.2526, 1.1823, 0.8059, -6.7796, -7.7728
8267.388916015625, 71.39687313475523, 5.9257, -6.0864, 4.8752, 1.3750, -6.3520, -3.8077
8300.85107421875, 71.34057947757856, 6.2883, -5.6164, 5.2926, 1.8325, -5.9231, -3.4379
8332.5810546875, 71.29748515922904, 6.7891, -4.0124, 3.2652, 2.5112, -4.6275, -5.5378
8368.81005859375, 71.28187739590643, 4.4893, -1.7472, -0.8997, 0.1314, -2.9702, -9.5993
8397.274169921875, 71.97618399186615, 2.5031, -0.8914, -2.4984, -1.8194, -2.6615, -11.1212
8436.885986328125, 72.09545679183101, -0.5494, -2.6192, -14.5502, -4.7498, -5.1938, -23.0295
8463.1650390625, 72.57969909388022, -4.5338, 1.4374, -16.6741, -9.0487, -1.2911, -24.9410
8502.212158203125, 77.8229720326183, -5.5216, 2.3041, -6.0088, -9.8955, -0.7334, -14.2437
8532.60595703125, 82.1565575183903, -0.2315, 0.5176, 1.2088, -3.8077, -2.3450, -7.4623
8568.590087890625, 76.32412316734796, 2.6099, 1.0768, 2.2521, -0.6776, -1.4566, -6.6330
8598.378173828125, 75.14871425307624, 2.8874, 1.7843, 2.4429, -0.4769, -0.5885, -6.4578
8634.1689453125, 75.32264863672054, 1.8490, 3.0858, 7.1388, -1.4564, 0.8703, -1.8242
8668.342041015625, 75.51063896327727, 1.6767, 3.6873, 7.3067, -1.4329, 1.4648, -1.7244
8695.76611328125, 75.11826323268484, 1.5195, 4.0470, 6.9821, -1.6481, 1.7463, -2.0092
8734.776123046875, 75.47164508573753, -1.7104, 5.4112, 4.0180, -5.0757, 2.7358, -4.7960
8767.640869140625, 78.7626470612069, -2.6332, 5.3247, 2.7752, -5.6150, 2.4015, -6.0980
8801.08984375, 78.49598102041182, -3.0357, 1.1871, -2.4682, -5.7649, -1.6888, -11.4377
8834.449951171875, 74.77406146940689, -4.4038, 2.0810, -9.0295, -7.6312, -0.4986, -17.9233
8866.386962890625, 75.69875916737045, -7.1515, 0.7916, -10.0509, -10.7956, -1.4581, -18.8730
8900.5, 76.83043222044573, -7.1454, -2.4134, -4.1450, -10.9072, -4.1952, -13.0245
8933.362060546875, 74.95388452246868, -2.5742, -4.6259, -1.3100, -6.2326, -5.9025, -10.3187
8964.8330078125, 74.1568183428878, 0.8895, -5.5562, 0.9985, -2.7851, -6.6689, -8.0254
8999.84716796875, 73.79584020408483, 3.3500, -5.8942, 5.2218, -0.4214, -6.7093, -3.7939
9035.249755859375, 72.45163536331297, 6.9236, -4.4584, 4.3874, 3.1844, -5.1143, -4.6546
9065.470947265625, 71.584559559167, 7.1041, -4.3765, 3.6868, 3.4803, -5.1074, -5.3964
9098.678955078125, 69.68467688980739, 6.0792, -3.3047, 3.6079, 2.8021, -4.4157, -5.5680
9132.833984375, 70.9708799836952, 3.3513, -0.2275, -0.3336, 0.3147, -1.9833, -9.4915
9166.926025390625, 71.8430612653503, 2.9828, -1.5163, -4.1847, 0.0841, -4.4980, -13.0661
9200.355224609375, 71.50534444084919, -1.6690, -2.2682, -9.4414, -5.0983, -5.5089, -18.0384
9233.839111328125, 72.36689027755119, -6.2570, 2.0322, -15.2543, -10.1831, -1.1182, -23.6704
9265.5, 74.31533645711005, -5.1661, 1.9703, -10.4987, -8.9649, -1.1706, -18.9766
9300.820068359375, 74.70484220404545, 1.5127, 0.3222, -0.3485, -1.5766, -2.5815, -9.1913
9332.426025390625, 73.7821680979773, 1.5262, 1.6443, 1.8903, -1.5613, -1.1331, -6.9936
9366.634033203125, 74.32004751022008, 1.6936, 2.7807, 5.9591, -1.4585, 0.2776, -2.9835
9399.1318359375, 74.92441164083105, 1.7244, 2.7982, 6.2931, -1.3961, 0.3217, -2.6679
9433.76318359375, 74.70534609795693, 1.3884, 3.1808, 8.7975, -1.5607, 0.6370, -0.2026
9466.829833984375, 74.14564875104026, -0.1616, 4.7995, 7.6599, -2.9935, 2.1109, -1.3358
9500.902099609375, 73.72152186124379, -1.8155, 5.8224, 5.2573, -4.5990, 2.9488, -3.6962
9531.85498046875, 73.54033691429333, -3.2896, 5.3185, 1.4979, -6.0970, 2.2969, -7.3993
9566.55517578125, 73.62059159185843, -5.4944, -0.0968, -3.6915, -8.4922, -3.1786, -12.5055
9599.35595703125, 73.58330726532625, -7.4534, -0.7484, -11.8214, -11.0751, -3.5136, -20.5051
9634.85693359375, 73.64812248165424, -8.4398, -0.4936, -11.3918, -12.5296, -2.9465, -19.9608
9662.294921875, 73.89142878369324, -5.5236, -2.7945, -2.1219, -9.4973, -5.2020, -10.7580
9701.91796875, 73.31097782857577, 3.4759, -3.8354, 5.5483, -0.4115, -5.9351, -3.2067
9730.966064453125, 73.09486308572741, 5.1973, -3.6730, 6.6647, 1.1138, -5.6406, -2.0315
9764.7880859375, 73.20654231840997, 6.4307, -3.3693, 6.7722, 2.1020, -5.1478, -1.8458
9800.31005859375, 72.47337055516515, 5.6710, -3.2183, 4.9291, 1.6138, -4.9036, -3.8384
9834.468017578125, 72.73206345311502, 5.5745, -2.0160, 4.2513, 1.9857, -3.9536, -4.6670
9867.470947265625, 72.24250440007486, 4.1270, -0.4751, -1.5129, 0.6996, -2.9513, -10.3612
9900.938232421875, 72.08335200007691, 3.3340, -1.6055, -3.2516, -0.0441, -4.7582, -11.9014
9927.98388671875, 72.25398213875859, 3.2706, -6.5095, -7.0262, -0.0323, -9.9009, -15.6145
9964.273193359375, 72.31900826936491, -0.5192, -2.9299, -14.2296, -4.2626, -6.4929, -22.5640
10002.3291015625, 73.55120974688816, -4.4469, 0.2068, -7.0942, -8.3188, -3.4282, -15.3383
10031.748779296875, 74.19667414690186, -1.4733, -0.3755, -2.0735, -4.9358, -3.9480, -10.5245
10068.10498046875, 74.24140477552577, 3.5029, 2.5935, 3.2307, 0.6029, -0.6256, -5.5668
10099.257080078125, 74.75181604082131, 3.5459, 3.2891, 3.9904, 0.5749, 0.1582, -4.8153
10133.80810546875, 75.41585168160866, 1.9388, 4.8579, 7.7400, -1.1859, 1.8943, -1.0704
10166.7138671875, 78.60258500409213, 1.1144, 4.9705, 8.5002, -1.7927, 2.0714, -0.4057
10199.645263671875, 77.03379917551977, -0.2337, 4.7609, 7.8614, -3.0101, 1.8367, -1.0778
10234.407958984375, 75.71230826941617, -1.0919, 5.5886, 4.8726, -3.6848, 2.5455, -4.0821
10266.1630859375, 75.4548592081679, -2.0219, 4.6520, 2.4141, -4.4893, 1.5642, -6.5607
10301.60791015625, 74.99567648978011, -7.0631, -0.4259, -13.5775, -10.0061, -3.4242, -22.4386
10332.3369140625, 74.73414421225719, -10.4575, 0.8307, -14.6023, -13.9378, -2.0511, -23.3059
10366.210205078125, 75.46814137141384, -12.5134, 0.9035, -14.7986, -16.4506, -1.7588, -23.3765
10400.876220703125, 75.91506268571678, -2.5248, -1.6848, 0.2531, -6.1232, -4.0957, -8.5452
10433.9619140625, 74.28835309390507, 1.3796, -2.8929, 5.1240, -1.9870, -5.1755, -3.7993
10465.181884765625, 73.61841830209838, 4.4628, -2.0605, 5.5498, 0.9845, -4.3019, -3.3411
10502.01708984375, 73.93460224494238, 5.4867, -1.9923, 9.4920, 1.8634, -4.2641, 0.6669
10531.906005859375, 73.26490475109428, 6.5580, -2.1688, 9.7784, 3.0812, -4.4715, 0.9026
10567.2900390625, 73.21402452253473, 7.4342, -2.2109, 6.7672, 4.2734, -4.7199, -2.1706
10598.055908203125, 72.47120100414328, 7.2199, -1.8387, 5.5899, 3.9790, -4.4816, -3.2804
10635.39306640625, 72.68833800821608, 3.6163, -0.5776, -3.7495, -0.1112, -4.0722, -12.1199
10666.290771484375, 74.11585513470085, -0.2691, -6.2121, -12.2689, -4.3003, -10.1454, -20.2968
10702.442138671875, 73.98040939592327, -6.5554, -1.5401, -14.5822, -10.8169, -5.6663, -22.3915
10732.9560546875, 80.12979640003283, -3.6545, -1.5354, -10.9949, -7.2920, -5.6419, -19.1235
10768.550048828125, 79.12571135512759, 2.6276, -2.8098, -4.0375, -0.4441, -6.7350, -12.4831
10798.594970703125, 76.79939724080268, 2.8859, -2.3558, -2.5882, -0.0820, -6.1799, -11.1169
10835.81689453125, 77.36431138776626, 1.4290, 2.5216, 3.0154, -1.3081, -1.0410, -5.7016
10865.65185546875, 76.91476655509726, 1.1357, 4.7773, 7.2015, -1.4070, 1.1542, -1.5493
10897.819091796875, 76.42697317550783, 0.8931, 5.1012, 8.3875, -1.6085, 1.3901, -0.3383
10935.580810546875, 75.82291405713075, -1.8674, 5.9167, 9.8685, -4.5122, 1.9193, 1.3131
10966.156982421875, 76.1449289142602, -2.1238, 8.4652, 3.3016, -4.8477, 4.3567, -5.1761
11000.710205078125, 76.15568492243678, -4.0486, 9.0775, 1.3104, -6.7597, 4.7793, -7.0768
11034.0771484375, 76.12839687345529, -6.4821, 2.5621, 2.7803, -9.0556, -1.5291, -5.7525
11064.3310546875, 75.18828637550712, -5.8088, 0.2492, -2.9927, -8.3537, -3.4186, -11.7243
11099.138916015625, 75.39156811433737, -2.9233, 2.8562, -13.1032, -5.8115, -0.1303, -21.9863
11132.117919921875, 74.61309333065694, -4.9085, -2.0000, -9.9761, -8.5193, -4.4565, -18.7566
11168.185791015625, 74.80705926534792, -2.7363, -3.6401, -2.3057, -6.6934, -5.3817, -11.1079
11198.93798828125, 73.23877991025125, -1.5058, -3.5551, -0.7061, -5.4272, -5.1204, -9.5572
11232.41015625, 72.94103892252207, 2.9513, -3.5650, 3.5642, -0.8486, -4.7712, -5.3955
11266.4208984375, 72.62228754284004, 5.3597, -4.0445, 5.5418, 1.5574, -5.0446, -3.4423
11301.5810546875, 71.61573561636125, 5.9126, -5.5312, 5.7594, 2.2827, -6.5134, -3.2976
11332.86572265625, 70.9898247347243, 6.0643, -4.9588, 3.4414, 2.4708, -6.0270, -5.6204
11369.06005859375, 71.78003213881608, 3.8460, -2.3474, -3.0654, -0.0168, -4.2572, -11.8746
11396.42919921875, 72.41700012249889, 3.3260, -2.3902, -3.6366, -0.5857, -4.6615, -12.3378
11435.577880859375, 73.94698598366372, -0.4236, -3.8217, -14.5053, -5.0069, -6.9552, -22.5890
11464.635009765625, 91.18814810613104, -4.2917, -0.2030, -13.9802, -9.2865, -3.5460, -21.7292
11503.213134765625, 104.49295204897372, -4.9668, 0.5108, -6.4526, -9.7151, -3.1144, -14.2296
11532.3798828125, 101.42279252244383, -0.9431, 0.7926, -2.9174, -5.4842, -2.8579, -10.8055
11567.06298828125, 96.78949474285973, 3.6046, 4.8201, 3.8301, -0.6466, 1.2327, -4.2463
11599.919921875, 93.90342457956697, 2.7523, 5.9375, 7.5132, -1.5411, 2.4011, -0.5634
11631.011962890625, 90.26573115913729, 2.0391, 6.1049, 9.0422, -2.2206, 2.5786, 0.9435
11667.226806640625, 83.90564327343115, 1.1868, 6.8768, 8.7204, -3.0077, 3.2883, 0.6149
11696.98388671875, 81.41700481628578, 0.6467, 6.8459, 9.1393, -3.6108, 3.2275, 1.0801
11734.1201171875, 79.53484911831525, -2.0499, 8.4179, 3.8196, -6.4612, 4.7598, -4.1384
11765.93896484375, 79.7217451917821, -2.6791, 7.0300, 0.8249, -7.0442, 3.3481, -7.1476
11800.078125, 77.28921789390982, -6.3895, -0.1025, -7.3689, -11.1363, -3.4643, -15.2642
11832.94775390625, 77.9920353143125, -6.1113, -0.8733, -10.1400, -10.9695, -3.7152, -18.1706
11864.635009765625, 79.51615923265204, -3.7766, -2.4917, -9.3816, -8.7731, -4.8864, -17.4730
11902.700927734375, 80.9755361306166, -0.5237, -4.6470, -2.8243, -5.5059, -6.6409, -11.0323
11932.265869140625, 76.07995883268558, 1.3924, -4.9727, 0.9688, -3.6087, -6.7928, -7.2682
11966.843017578125, 73.17412372240663, 5.1071, -4.9248, 5.3937, 0.0560, -6.2646, -2.9046
12001.341064453125, 71.20056925712372, 6.0548, -5.5595, 6.4112, 1.2191, -6.7133, -2.0420
12033.294921875, 67.61564226939485, 6.6974, -5.3592, 4.2489, 2.0695, -6.4995, -4.3215
12066.803955078125, 65.92214429389045, 5.6799, -3.7128, 0.7861, 0.9834, -5.1201, -7.7069
12102.27490234375, 70.54954697959492, 2.9735, -1.8401, -1.3541, -1.8335, -3.8545, -9.6611
12131.26611328125, 74.43116942038128, 2.2382, -0.6576, -1.7220, -2.4858, -2.9984, -9.9909
12168.99609375, 74.08727913473678, 4.3414, -3.3168, -5.9885, -0.2324, -6.1995, -14.1702
12198.992919921875, 75.50564938771306, -0.2268, -0.3875, -13.3205, -5.4725, -3.1461, -21.1335
12233.449951171875, 78.18981812241752, -6.7362, 2.4635, -8.1453, -12.3843, 0.0349, -15.7854
12269.103271484375, 81.33720065303552, 0.3815, 0.1891, -3.5808, -4.5806, -1.9517, -11.7641
12295.238037109375, 79.61409101224588, 1.7959, 0.5051, -1.3809, -3.0161, -1.4456, -9.7001
12333.654052734375, 74.606671314323, 1.0617, 2.2137, 4.6264, -3.8036, 0.3376, -3.6790
12367.93994140625, 81.93767834290415, 1.6857, 1.6411, 8.5679, -2.8463, -0.3680, 0.1065
12401.016845703125, 83.61042404897455, 2.2867, 2.2576, 10.1892, -1.8699, 0.0129, 1.5953
12434.302978515625, 79.74386880817003, 0.4597, 5.2850, 8.4587, -3.6821, 2.8024, -0.0766
12467.368896484375, 75.90773635920118, -2.6237, 6.4400, 2.8081, -6.8170, 3.7451, -5.6373
12500.923095703125, 79.08910392658825, -5.5281, 5.0737, 0.4915, -9.3256, 2.3364, -8.1258
12532.583740234375, 79.5091032163321, -5.3325, 3.9581, -6.6503, -8.7710, 1.5028, -15.5001
12568.528076171875, 76.65146286529453, -5.5335, 4.0355, -13.7895, -9.3076, 2.1159, -22.6349
12598.72802734375, 72.6701193143531, -7.0541, 2.3053, -11.1309, -11.3368, 0.6321, -19.7929
12633.68505859375, 71.20835139594439, -2.8068, -3.4871, 0.0365, -7.1934, -4.4303, -8.6835
12666.529052734375, 59.47803804895977, 2.3158, -4.7891, 3.0358, -1.9565, -5.2689, -5.7783
12700.235107421875, 56.92782433469283, 5.1114, -4.6051, 3.6232, 0.7087, -4.7057, -5.1390
12734.571044921875, 72.38834742040338, 6.6930, -5.7071, 5.6742, 2.2148, -5.6313, -3.0499
12766.164794921875, 78.6982537714047, 7.4703, -6.3239, 5.4526, 3.1316, -6.2620, -3.3419
12800.922119140625, 76.29403692242495, 6.7398, -5.3966, 1.9719, 2.4406, -5.6175, -6.8393
12834.059814453125, 74.87474764894434, 3.9000, -3.0098, -3.1818, -0.6518, -3.9774, -11.8140
12867.141845703125, 68.62161204897394, 2.7835, -5.3239, -3.1224, -1.7478, -6.9996, -11.6565
12900.817138671875, 75.22058326529304, 0.0646, -3.9018, -10.3588, -4.9796, -6.1239, -18.4698
12932.656982421875, 74.55273573063857, -4.4310, -1.9925, -11.3086, -9.8203, -4.3699, -19.1491
12966.9560546875, 66.27794089796078, -5.6683, 0.2841, -8.9966, -11.0938, -2.4292, -16.7020
13000.362060546875, 85.21848498773169, 0.3331, -0.9958, -3.7635, -4.6069, -3.7499, -11.7748
13033.240966796875, 73.52750836737845, 3.3480, 2.0749, 0.7854, -1.4108, -0.6012, -7.3610
13067.545166015625, 86.59934796735703, 4.7032, 4.7439, 4.2354, 0.0308, 2.1271, -3.9799
13097.72314453125, 112.50258028568473, 5.6340, 5.8224, 6.0773, 1.0083, 3.2094, -2.1656
13133.530029296875, 90.49830771426457, 5.2032, 7.2378, 7.9581, -0.0266, 4.4962, 0.1285
13166.51904296875, 117.32582754289618, 1.9603, 7.3709, 9.7922, -3.6414, 4.5476, 2.2543
13197.55908203125, 100.55164183674395, 0.1099, 7.2371, 7.7767, -5.3256, 4.4959, 0.0883
13233.794921875, 80.88046724080839, -2.6018, 4.0100, -0.0622, -7.7246, 1.4422, -8.0204
13266.4189453125, 86.73077911830661, -7.2990, -0.2158, -5.6639, -12.7253, -2.4551, -13.5195
13300.18798828125, 81.79357060407506, -10.3089, -0.0676, -12.5421, -16.0545, -1.7523, -20.3088
13331.905029296875, 83.29218852244902, -12.4367, -0.0052, -15.2551, -18.3412, -1.5408, -22.9329
13367.3369140625, 70.27052323265725, -4.9632, -3.2576, -0.2496, -10.3911, -4.4562, -8.3287
13399.1240234375, 84.81680322444853, -0.0550, -4.7279, 2.9596, -5.1387, -5.8000, -5.3576
13434.242919921875, 74.05103158364771, 5.9398, -6.1358, 6.4500, 0.8969, -6.9314, -1.9230
13467.30908203125, 74.2314609632683, 5.7317, -5.7584, 7.4035, 0.7965, -6.4845, -1.0397
13500.22705078125, 74.87234342035356, 6.9423, -5.1225, 6.2957, 2.3475, -5.9840, -2.3249
13532.297119140625, 72.27604632661921, 6.7017, -4.3136, 5.8429, 2.3234, -5.3331, -2.8727
13568.06103515625, 71.96398803276395, 3.4979, -1.4801, -2.1216, -0.6098, -3.4004, -10.8170
13600.620849609375, 70.69939142860626, 1.1049, -2.2459, -4.8028, -2.8672, -5.0028, -13.3347
13631.781005859375, 74.16458858776615, 2.4994, -6.5566, -6.7709, -1.4057, -9.6685, -15.2111
13666.156005859375, 75.14181682450169, -2.0146, -3.1680, -18.6078, -6.6753, -6.6195, -26.5156
13698.867919921875, 83.53050046531034, -9.2022, 1.1139, -12.3236, -14.3766, -2.6598, -19.7502
13736.158935546875, 87.99247777959452, 0.5806, 0.1560, 0.6567, -3.7098, -3.8725, -7.1877
13763.1611328125, 83.18875751022826, 2.3256, 1.0539, 2.0414, -1.8191, -2.9754, -5.8805
13802.590087890625, 78.10123060408068, 5.6143, 6.0880, 6.5641, 1.1405, 2.0485, -1.1715
13830.840087890625, 76.82922437543792, 5.6635, 6.2952, 8.2797, 0.9267, 2.2069, 0.7286
13866.626953125, 78.58678275102278, 3.5598, 7.4327, 9.5301, -1.2828, 3.3288, 2.0550
13900.698974609375, 74.21014995916715, 2.8852, 7.7687, 7.2456, -1.8444, 3.7109, -0.3264
13934.1689453125, 75.34966489788876, -0.6491, 7.1512, 3.8521, -5.3663, 3.0982, -3.7303
13967.589111328125, 75.00756118364382, -2.5133, 2.5801, -0.8047, -7.1175, -1.3542, -8.5178
13998.64794921875, 74.85372942041882, -4.9023, -0.7963, -8.1781, -9.6262, -4.5756, -15.8965
14031.114013671875, 74.8370439755141, -10.3768, -2.1989, -13.6990, -15.5915, -5.5531, -21.2969
14064.9208984375, 75.88212661223527, -11.8371, -2.5580, -15.2838, -17.1660, -5.5400, -22.9573
14098.009033203125, 76.91612408978548, -5.3955, -4.8642, -1.4024, -10.5465, -7.6444, -9.2706
14131.14990234375, 77.41873305307514, -0.0825, -4.1628, 5.9490, -5.0619, -6.7683, -2.0876
14168.281005859375, 77.90907182041632, 5.6123, -0.9976, 10.2795, 0.4646, -3.3502, 2.2709
14201.047119140625, 77.30261351838068, 8.4680, -0.2879, 10.3445, 2.8751, -2.7017, 2.6592
14233.819091796875, 77.46921763264069, 8.9964, -1.1895, 10.4794, 3.2596, -3.5118, 2.8724
14267.555908203125, 77.35222431019709, 8.5804, -1.2102, 3.2261, 3.2397, -3.3444, -4.7169
14300.26123046875, 74.39506586942838, 4.2865, -3.7911, -5.9382, -1.2174, -6.0792, -13.7255
14332.987060546875, 73.97289191026388, -0.5492, -9.5305, -10.3491, -5.9821, -12.1417, -18.0845
14367.871826171875, 74.25896608983105, -5.9034, -5.6537, -25.3830, -11.6030, -8.5739, -32.8097
14396.6318359375, 72.75187029392124, -10.4786, -1.7018, -19.3148, -16.1718, -4.7748, -26.6846
14435.359130859375, 73.23299133877569, 0.0212, 0.5789, -3.7930, -4.2503, -2.8425, -11.9305
14465.14599609375, 73.3759341959223, 2.0176, 0.4209, -1.4705, -1.8965, -3.0101, -9.7818
14501.10009765625, 73.65412741226434, 2.3196, 3.4719, 3.4007, -1.4389, 0.0832, -4.9994
14532.361083984375, 74.41332222859901, 1.7558, 4.6491, 4.8432, -2.0807, 1.1796, -3.4884
14565.651123046875, 75.89320531428709, 1.6793, 5.8949, 8.6514, -2.0277, 2.3067, 0.3115
14602.272216796875, 76.10410431836799, 1.4574, 6.8516, 10.3281, -1.9665, 3.1083, 1.9356
14632.130126953125, 76.38248754285131, 1.0305, 7.2931, 9.0554, -2.3893, 3.5102, 0.6789
14667.5849609375, 76.70661340407193, -3.2048, 7.7676, 2.2414, -6.7302, 3.9217, -6.0623
14699.8359375, 76.9486524734525, -4.7365, 4.7531, -1.0043, -8.2814, 0.9912, -9.3381
14734.344970703125, 77.61610062855253, -7.6249, 2.1610, -11.0119, -11.5188, -1.1597, -19.3773
14766.164794921875, 79.22810266122164, -7.7514, 1.4157, -11.9200, -11.8571, -1.6415, -20.2846
14800.552001953125, 78.30507258775653, -8.9260, -2.5801, -7.2281, -13.6285, -4.9521, -15.5004
14831.77490234375, 78.45702994286088, -6.4406, -3.8763, -3.9643, -11.1953, -5.9957, -12.2752
14877.81005859375, 78.10905519184224, 1.6222, -4.5147, 3.1780, -3.3721, -6.1522, -5.1013
14895.23291015625, 75.91062226125975, 4.5164, -3.8823, 3.6261, -0.6668, -5.4696, -4.5461
14936.159912109375, 75.81212983676264, 8.7405, -5.3893, 8.1854, 2.8880, -7.1085, 0.5067
14965.119873046875, 78.09187462861085, 8.4432, -5.6694, 8.7462, 2.6628, -7.4036, 1.0163
15001.721923828125, 74.08002009800344, 9.3142, -3.8398, 4.9502, 4.2478, -5.7877, -3.2172
15031.447998046875, 72.76517710209687, 6.5937, -2.0704, -4.4481, 1.2236, -4.5387, -12.2737
15066.89697265625, 75.6325374286191, 1.0398, -8.0938, -6.9662, -4.6609, -11.1181, -14.3504
15101.735107421875, 75.38373811427164, -6.6142, -7.7481, -18.9238, -12.3596, -11.0082, -26.1718
15132.22705078125, 75.2560462938671, -7.4301, -1.5898, -17.1474, -13.2063, -5.1815, -24.2118
15165.905029296875, 77.63709911021068, -6.9663, -0.8825, -13.3889, -12.6270, -4.7030, -20.4267
15201.51806640625, 78.26808294694274, 1.3673, 3.7703, 0.8978, -3.3499, -0.4841, -6.5734
15233.075927734375, 78.22022554286042, 4.3626, 6.5826, 2.7313, 0.1426, 2.2167, -4.9695
15266.8720703125, 75.88446800817745, 3.3413, 8.0802, 8.6326, -0.8184, 3.4303, 1.0665
15300.089111328125, 75.2494712734595, 2.3714, 10.0155, 12.6668, -1.6162, 5.2809, 5.0607
15333.15087890625, 75.69894266937075, 2.1115, 10.1122, 11.9045, -1.7825, 5.4076, 4.2316
15367.60595703125, 75.38902724897636, 0.7336, 10.0613, 8.5408, -3.0308, 5.4803, 0.7296
15399.505126953125, 75.954290963268, -0.7020, 9.0859, 6.7824, -4.4432, 4.5692, -1.0772
15432.635009765625, 75.80482060410613, -3.1314, 5.5963, 2.5013, -7.0265, 1.2577, -5.3838
15466.509033203125, 74.85549501229639, -12.0279, 2.1014, -7.4065, -16.9999, -1.5250, -15.0419
15501.945068359375, 77.26218075920774, -9.1057, -1.4557, -14.9247, -13.9964, -4.0112, -23.0316
15531.580078125, 77.4161878938918, -7.3008, -2.4305, -15.9733, -12.2303, -4.6088, -24.1663
15566.658203125, 76.29136914287554, -1.0333, -6.2569, -2.7756, -6.3292, -7.4235, -10.9464
15602.0390625, 71.91413364902523, 2.3543, -5.9351, 2.9659, -3.3595, -6.6563, -4.9716
15630.80419921875, 71.41560174691519, 3.5319, -5.8346, 3.5852, -2.3234, -6.4356, -4.2585
15666.6630859375, 71.58260546938195, 8.1484, -7.6080, 5.7269, 2.0466, -8.0720, -1.9362
15701.534912109375, 70.6000381959166, 8.0802, -8.6769, 3.4482, 2.0632, -9.3090, -4.2698
15731.199951171875, 70.68940291427428, 8.1851, -8.0299, 1.4127, 2.1901, -8.8584, -6.3038
15768.626953125, 73.06735918367787, 3.6939, -5.2586, -6.8180, -2.7746, -7.2845, -13.9049
15798.7509765625, 76.43551488163759, 0.6304, -6.9926, -7.6469, -5.7751, -9.4061, -14.6694
15835.6201171875, 74.4496351265521, 0.1411, -1.7904, -19.9754, -5.9008, -5.3763, -26.8170
15866.2958984375, 74.62420831836339, -4.8973, 3.1925, -16.3148, -10.7827, -0.8731, -23.0232
15901.75390625, 75.07491311837813, -3.2147, 4.8053, -3.4002, -8.4143, 0.5124, -10.5210
15931.375244140625, 75.17326831020766, -1.5751, 5.6707, 3.1126, -6.0172, 1.4156, -4.5249
15964.58203125, 76.19363798364007, -0.3413, 7.2247, 6.0197, -4.1988, 3.1177, -2.0066
16000.490966796875, 80.26382472652159, 0.5398, 9.4852, 8.3614, -2.0842, 5.7801, -0.3310
16031.8427734375, 80.74803147753465, -0.3424, 9.2795, 9.9766, -2.8736, 5.5884, 1.2508
16066.054931640625, 84.65467090613367, -4.0627, 6.8404, 11.8196, -6.7485, 3.3450, 3.0595
16100.31396484375, 87.66452711838676, -3.2855, 7.9934, 2.4923, -6.1197, 4.6335, -6.2740
16133.1650390625, 86.2188903510404, -5.2277, 4.1630, -1.8147, -8.2465, 0.8758, -10.5469
16166.0029296875, 84.5995037959152, -7.2446, 3.2994, -5.1118, -10.3130, 0.1589, -13.8807
16198.39697265625, 83.016161771448, -5.6934, 1.0446, -7.2659, -8.4803, -1.6061, -16.2869
16232.279052734375, 73.36011720813555, -2.1648, 0.0877, -13.9339, -5.0486, -1.8428, -23.1060
16267.13720703125, 72.674984204042, -1.2258, -3.5156, -7.2311, -4.8605, -4.7947, -16.2490
16300.73193359375, 72.90214871017032, 0.2419, -4.0208, 2.8085, -3.7956, -4.9690, -6.0780
16334.635009765625, 72.71213840813333, 3.5290, -3.3366, 5.9251, -0.7914, -4.0336, -2.8509
16367.195068359375, 71.78910179597179, 6.5907, -4.1218, 8.2013, 1.9038, -4.5651, -0.4015
16399.4580078125, 72.08675835107667, 7.0268, -4.9896, 8.8868, 2.2347, -5.3202, 0.3371
16433.27392578125, 71.69613274290798, 7.0018, -6.0942, 6.5101, 2.3016, -6.2124, -2.0960
16465.531005859375, 70.71199690615263, 7.6217, -5.6200, 1.3451, 3.1098, -5.8417, -7.3592
16499.889892578125, 72.4576093306224, 5.4497, -4.5926, -4.6835, 0.7202, -5.3392, -13.2419
16532.998046875, 73.1459173469892, -1.6793, -5.7775, -17.7754, -6.6361, -7.3786, -26.0842
16564.849853515625, 78.56808845713046, -4.6353, -2.1608, -24.1099, -9.5548, -4.0299, -32.3849
16599.8388671875, 90.96613448976704, -3.6348, 0.7085, -14.3491, -7.7723, -2.0194, -22.8114
16633.441162109375, 90.81289224487507, -2.1589, 1.7681, -3.0972, -5.4947, -1.4462, -11.7407
16666.473876953125, 86.90433657959422, -0.7925, 4.8931, 2.6341, -3.5840, 1.2650, -6.0386
16700.18505859375, 87.77370165713516, 1.1919, 8.3682, 11.3490, -1.1353, 4.2889, 2.7400
16732.281982421875, 89.51800386937283, 0.9836, 8.1532, 13.8141, -1.1654, 3.8463, 5.2699
16767.52392578125, 85.76793126531298, -0.2313, 8.6902, 14.1678, -2.4165, 4.3277, 5.6611
16797.2880859375, 84.4280128898055, -0.7170, 9.1116, 13.4421, -2.8913, 4.8174, 4.8979
16833.347900390625, 86.15276380407448, -2.3277, 10.7521, 9.7175, -4.0258, 7.2320, 0.7233
16866.041015625, 81.4804072081742, -1.6531, 9.8917, 3.4942, -3.2816, 6.6325, -5.6105
16899.45703125, 74.04077863674492, -2.5005, 5.0152, -5.7191, -5.0016, 2.2697, -14.7953
16934.34912109375, 77.53348487353377, -12.4050, 0.4297, -18.1770, -16.3114, -0.8603, -27.0790
16965.94921875, 78.51270462043375, -11.4901, 0.4405, -25.1056, -15.6570, -0.2809, -33.9535
16999.221923828125, 74.46194896331228, -7.8563, -1.0555, -15.7294, -11.9834, -1.6830, -24.6031
17031.906982421875, 73.48628667763198, 1.2005, -4.9080, 1.8936, -2.5967, -5.2954, -7.1398
17068.55908203125, 72.49734299590035, 3.9769, -4.4533, 5.7458, -0.0087, -4.7306, -3.2102
17099.566162109375, 73.17219968162341, 5.1097, -4.4063, 7.7877, 1.0163, -4.6799, -1.1196
17133.02197265625, 72.05817852248795, 7.4750, -6.9168, 11.4874, 3.6579, -7.1011, 2.4560
17164.05126953125, 66.93761661224774, 8.4465, -7.2219, 8.4937, 4.7651, -7.3755, -0.5944
17200.69384765625, 63.69068051425766, 7.0163, -5.8172, 0.3517, 3.1056, -6.4212, -8.6211
17233.81689453125, 70.17550296326861, 3.3591, -4.5183, -7.4707, -1.0315, -5.8398, -16.1395
17267.60693359375, 75.64137749385374, 3.3679, -6.1066, -14.0178, -1.4483, -8.1391, -22.3150
17301.404052734375, 78.2460438938678, -8.3320, 1.4383, -22.2302, -14.2335, -1.1839, -29.6103
17331.44189453125, 81.42738965713441, -12.4794, 4.4031, -12.6207, -18.4354, 1.3387, -19.7836
17365.219970703125, 81.85077320813612, -6.5455, 3.5583, -4.6948, -12.0657, 0.3328, -12.1308
17399.64892578125, 78.4972839183518, 1.6520, 2.9157, 1.8130, -2.6576, -0.4926, -6.3099
17433.705078125, 78.68055464489845, 5.7905, 7.7218, 8.1563, 1.8697, 4.0151, -0.0326
17464.99609375, 83.30618903671082, 5.0703, 8.2186, 12.3733, 1.2029, 4.4613, 4.1821
17500.199951171875, 87.4963628897682, 2.4696, 6.5699, 16.1614, -0.7216, 3.0143, 7.5973
17534.22509765625, 85.75174137138723, 0.9281, 7.3024, 13.0000, -1.9489, 4.2312, 4.1421
17566.35009765625, 79.71386404078872, -0.2125, 8.9160, 5.9359, -3.4646, 6.2373, -2.9196
17599.386962890625, 79.45157315098648, -2.4469, 8.5814, 2.6905, -6.0735, 6.1269, -6.0841
17629.197021484375, 82.07896329792136, -7.8421, 5.0127, -2.6558, -11.7039, 2.9473, -11.4302
17669.30126953125, 77.11448843267017, -10.1149, 1.8686, -19.6054, -14.4818, 0.9126, -28.3339
17699.074951171875, 74.59313951839016, -13.3867, 2.0913, -24.9058, -18.1823, 1.4237, -33.4338
17733.678955078125, 76.77015673465888, -7.1366, -2.5684, -2.9667, -11.9062, -2.9102, -11.5285
17765.48291015625, 72.3084365551425, -3.6605, -2.3374, -0.5241, -8.4922, -2.5980, -9.0538
17800.737060546875, 71.9937389387935, 4.5568, -1.6778, 7.3474, -0.8933, -2.0402, -0.7973
17832.944091796875, 73.17002830203208, 6.1467, -1.9868, 8.1154, 0.6753, -2.3887, -0.0132
17864.62890625, 71.77106365720412, 12.2232, -4.6720, 9.0989, 6.9579, -5.1091, 0.8372
17901.77587890625, 68.79351499593568, 11.7764, -5.6920, 6.7405, 6.5302, -6.1992, -1.5293
17932.873779296875, 67.7124461714222, 7.6428, -5.0170, 1.0245, 2.2845, -5.6737, -7.1626
17971.91015625, 68.56019248164289, 1.3117, -1.9231, -8.0560, -4.2329, -3.1018, -16.0584
17997.469970703125, 73.57380877553221, 0.2209, -1.4589, -8.6727, -5.2297, -2.9052, -16.6958
18034.441162109375, 72.62819260407065, -10.8169, -0.5518, -21.6111, -16.5342, -2.6544, -29.2964
18063.296875, 74.23222631021399, -11.8004, 1.3504, -16.1031, -17.5212, -0.8894, -23.7467
18101.410888671875, 74.38203803262357, 1.8844, 0.5682, -3.9955, -2.7502, -1.9172, -12.2728
18131.263916015625, 73.94781603263726, 4.6421, 0.2737, -1.3352, 0.1571, -2.1937, -9.6998
18164.471923828125, 74.0860401550777, 4.3401, 3.9924, 3.3596, -0.4079, 1.5342, -4.8614
18200.633056640625, 74.66520428569576, 4.1938, 6.0886, 12.3411, -1.1045, 3.5087, 4.5026
18233.1220703125, 75.23246632651497, 4.3893, 5.9336, 14.7991, -0.8543, 3.3754, 6.9168
18265.461181640625, 75.47147772243865, 4.1153, 5.8509, 13.3795, -1.0959, 3.3621, 5.4537
18301.016845703125, 75.12494386119396, 1.9175, 5.9460, 7.2931, -3.6012, 3.7658, -0.5146
18331.532958984375, 75.71663684901793, -0.4638, 6.2048, 3.9043, -6.1321, 4.1695, -3.8351
18366.444091796875, 75.82937856326195, -7.3103, 2.5624, -0.4105, -13.0919, 0.8139, -8.1361
18397.612060546875, 76.03337256327035, -9.7170, 1.3645, -8.7272, -15.7262, -0.1769, -16.3222
18433.990966796875, 79.47705279999323, -17.2228, 2.6870, -17.8966, -23.9392, 1.5663, -24.9539
18464.548095703125, 81.50296183673451, -14.5712, 0.4770, -9.2614, -21.2846, -0.6306, -16.3235
18500.385009765625, 80.74407421224335, 0.9729, -3.2600, 0.5529, -5.3555, -4.0933, -6.8920
18532.85400390625, 76.30156333878676, 4.2003, -4.1087, 3.2611, -2.2398, -4.8572, -4.0966
18566.0400390625, 75.88878749384493, 7.1489, -4.8079, 6.2378, 0.5839, -5.4027, -1.0229
18599.151123046875, 75.45156212245098, 9.5976, -5.5812, 7.1780, 3.1638, -6.0106, -0.2107
18633.93505859375, 74.15213858775662, 9.7608, -5.9104, 5.2128, 3.5707, -6.2954, -2.3836
18667.8310546875, 73.40438386123122, 6.5086, -3.8568, 1.1543, 0.3927, -4.5593, -6.4793
18700.235107421875, 73.65673660411812, 2.0877, -2.4296, -3.5263, -3.8990, -3.6197, -11.2019
18731.89306640625, 73.80997694698168, -1.9409, -2.7710, -7.9346, -7.7897, -4.3730, -15.6415
18767.923828125, 73.95857198370813, -9.4308, -1.6937, -20.9360, -15.1493, -4.2232, -28.4906
18798.739990234375, 73.4666406612563, -9.2564, -0.2585, -18.7323, -14.9599, -3.0344, -26.2113
18833.947021484375, 73.48921744489886, -3.2868, 2.4650, -5.5396, -8.2533, -0.9881, -13.2585
18864.553955078125, 73.30904417958499, 0.6344, 1.9726, 1.6052, -4.1171, -1.5841, -6.2014
18902.681884765625, 73.71672757554202, 6.1220, 5.6821, 6.2653, 1.3825, 2.0699, -1.5232
18933.732177734375, 74.74532514286145, 6.0313, 7.2468, 9.4586, 1.1557, 3.7070, 1.7211
18967.915283203125, 78.90809073471476, 4.6882, 8.0463, 11.8077, -0.1360, 4.6901, 3.9570
18997.80908203125, 75.68460080818339, 4.4136, 7.7670, 11.7695, -0.4600, 4.5369, 3.8964
19035.056884765625, 75.50415848162518, -0.1068, 6.6466, 7.8026, -5.1281, 3.9389, -0.1740
19064.59912109375, 75.73174725715322, -3.1595, 6.1044, 4.0161, -8.2114, 3.5494, -3.9914
19098.626953125, 75.11321853878702, -7.6694, 4.9803, -1.6978, -12.8382, 2.5581, -9.6720
19135.301025390625, 75.99328204082394, -9.2953, 1.2334, -9.9829, -14.4812, -0.6207, -18.0970
19164.726806640625, 76.17759081629784, -10.3263, 1.7989, -15.1168, -15.7899, 0.1668, -23.0952
19201.961181640625, 77.2413647509882, -7.8300, -0.9894, -4.6546, -13.8205, -2.1735, -12.3280
19233.206787109375, 80.7713499183462, -3.0179, -2.1567, -1.3484, -8.8701, -3.0797, -9.1632
19266.637939453125, 77.28458016327136, 4.6411, -3.4736, 2.9062, -1.3466, -3.6904, -4.8572
19296.4931640625, 74.5058790775189, 5.6842, -3.5899, 3.1435, -0.4215, -3.6239, -4.5304
19334.617919921875, 73.88027520814933, 9.2180, -5.7762, 5.8347, 2.9790, -5.4553, -1.7246
19365.571044921875, 71.24631243264014, 10.0646, -6.4598, 5.9288, 3.9042, -6.0865, -1.6923
19399.470947265625, 67.09939458775126, 10.6373, -6.7348, 3.5313, 4.6584, -6.3907, -4.2343
19433.807861328125, 67.7031430938726, 5.6672, -5.5310, -3.5515, -0.4149, -5.8773, -11.2364
19465.35888671875, 72.28723088981016, 1.6468, -5.2238, -6.5590, -4.3471, -5.9821, -14.2835
19500.964111328125, 73.33142591021155, -6.7018, -2.8374, -19.7639, -12.8661, -4.4564, -27.2171
19528.87109375, 73.55228766530298, -11.5989, 0.2857, -16.8715, -17.8482, -1.5573, -24.2009
19569.025146484375, 73.401893893872, -3.6117, 1.5614, -6.9421, -8.8454, -0.9445, -14.8478
19596.48095703125, 73.43384526530035, -1.3537, 1.3006, -4.2412, -6.3285, -1.3677, -12.2601
19636.693115234375, 73.7405147428699, 2.6718, 4.4689, 4.4383, -1.9472, 1.4624, -3.6732
19663.798828125, 74.36399741225061, 3.6585, 5.9299, 6.2242, -0.8733, 2.8464, -1.9076
19702.551025390625, 75.4436915673312, 4.0750, 7.4193, 10.9897, -0.2117, 4.2190, 2.7707
19732.18994140625, 78.45853653063077, 3.8406, 8.1590, 12.1217, -0.3593, 4.9672, 3.8547
19769.0458984375, 79.65911669389853, 0.1483, 9.1060, 7.1001, -4.2621, 6.0753, -1.1178
19799.208984375, 79.93263213876988, -1.0799, 9.0777, 5.8002, -5.6214, 6.0940, -2.3632
19834.910888671875, 80.30971005716019, -4.5986, 5.7225, 0.7791, -8.9151, 2.8410, -7.5417
19864.7080078125, 76.70032525717475, -4.9680, 1.9919, -4.5118, -9.4460, -0.6675, -12.8211
19899.6279296875, 75.5125171836555, -9.3800, -0.8989, -16.1952, -14.7002, -3.1205, -24.1280
19935.3330078125, 76.46104040820423, -11.4074, -3.4370, -7.7067, -17.0265, -5.2557, -15.5354
19965.98486328125, 76.331560008166, -1.0026, -4.6656, 1.1850, -6.1022, -6.1051, -7.0668
20000.712890625, 74.67399328165439, 2.6930, -4.7552, 6.9165, -2.2511, -5.8252, -1.4847
20034.173095703125, 73.92624377963274, 4.0590, -4.7555, 8.4734, -0.5578, -5.2979, -0.1615
20065.219970703125, 70.41805179591127, 5.4785, -4.9429, 7.8454, 1.1426, -5.2426, -0.9456
20098.591796875, 65.24515969792208, 8.3797, -6.1519, 5.8884, 4.2499, -6.3768, -3.0034
20135.0849609375, 67.1701063101881, 6.9062, -5.4840, 4.7822, 2.7512, -6.0730, -4.0812
20164.198974609375, 72.28963164899957, 5.9311, -3.5191, 2.4652, 1.7237, -4.4632, -6.3425
20200.47998046875, 73.47005186123077, 3.4956, -4.7890, -3.8703, -0.9281, -7.0425, -12.3274
20231.578857421875, 74.11977226122129, 2.7176, -10.1242, -11.5817, -1.8802, -12.6324, -19.8726
20267.653076171875, 74.10372737956887, -14.9512, 0.4960, -19.1192, -20.5191, -2.8075, -26.4851
20295.513916015625, 79.88989236733912, -14.6905, 2.1664, -17.8444, -19.8915, -1.3449, -25.3803
20334.404052734375, 75.92890846528998, 0.4258, 2.3816, 0.6736, -3.1053, -1.7080, -7.5103
20366.343994140625, 75.17691066936888, 1.4622, 2.7806, 4.5886, -1.6908, -1.3812, -3.7125
20399.839111328125, 75.19408643268319, 1.7185, 5.3886, 5.1563, -1.2224, 1.1099, -3.1632
20433.341064453125, 75.27736933878415, 1.7389, 7.5843, 8.8326, -0.6993, 3.0411, 0.4908
20466.35693359375, 74.37421888164538, 0.2702, 7.5555, 11.6666, -1.8856, 2.9021, 3.3079
20500.125, 73.91338487349611, -0.8656, 9.1284, 9.4538, -3.1392, 4.4968, 1.1142
20532.958251953125, 73.93666324900202, -1.9882, 9.9858, 6.3367, -4.4266, 5.4203, -1.9929
20565.52099609375, 73.97373325714851, -3.1864, 9.2373, 3.4183, -5.7561, 4.7446, -4.9113
20599.237060546875, 73.99955032653303, -4.2950, 3.7582, 0.6681, -7.2685, -0.3475, -7.7267
20634.10205078125, 74.11412357552304, -8.7128, -0.6089, -13.8445, -13.5489, -3.4417, -21.8917
20664.6171875, 75.70710398365881, -14.2444, -0.6762, -17.2209, -19.5344, -2.9809, -25.1502
20701.3720703125, 76.71872966529773, -3.9500, -3.7071, -4.7948, -8.7614, -5.0878, -13.2277
20733.52099609375, 74.28668487348544, 2.7815, -5.3099, 3.1748, -1.9038, -6.3264, -5.3801
20762.448974609375, 74.06345162445984, 5.0998, -5.4075, 5.7816, 0.3180, -6.1582, -2.7472
20802.426025390625, 73.48874360814581, 8.2174, -5.4582, 7.0293, 3.2943, -5.7798, -1.4459
20832.35302734375, 72.56250577141819, 8.6967, -5.9847, 6.3846, 3.7947, -6.2200, -2.1057
20867.7587890625, 70.73069706943451, 5.7939, -5.1640, 1.3804, 0.7543, -5.5477, -7.0235
20898.7041015625, 71.55308103678321, 5.0269, -4.6780, 0.4125, -0.0561, -5.2530, -7.9543
20935.5498046875, 72.4497077469734, 2.2149, -7.4276, -8.7551, -3.0783, -9.1271, -16.8336
20965.19921875, 73.0086367836522, 1.1457, -7.5379, -12.9696, -4.3476, -9.5204, -20.8477
20999.3720703125, 73.14651313465585, -5.9438, -1.3799, -18.9268, -12.0134, -3.8813, -26.2120
21034.778076171875, 73.95415530610795, -3.4730, 2.6147, -6.3681, -9.1604, -0.5332, -13.7108
21061.7919921875, 74.57495266937389, -1.3983, 2.3472, -3.1833, -6.8612, -0.9031, -10.6508
21101.577880859375, 74.4743022040858, 3.2835, 4.6500, 3.6365, -2.0279, 1.2845, -3.8889
21130.018798828125, 75.3208978040671, 3.0317, 5.4814, 6.6216, -2.3047, 2.0873, -0.8733
21167.7099609375, 75.33432395101131, 3.5291, 7.8158, 12.0547, -1.3975, 4.2756, 4.3497
21197.800048828125, 75.21145457141928, 4.0610, 8.2893, 12.9568, -0.5614, 4.7610, 5.0603
21232.673095703125, 75.23052043261762, 3.4405, 8.6634, 11.3727, -0.8505, 5.3554, 3.1987
21266.5380859375, 74.98260529795657, -0.5155, 8.3362, 3.8788, -5.0621, 5.3688, -4.2879
21301.01416015625, 74.66202451430178, -5.3537, 2.8889, -0.2081, -10.1031, 0.2818, -8.3823
21333.143798828125, 74.17614539593028, -4.9559, -0.4734, -5.8153, -9.7266, -2.8370, -14.0508
21369.074951171875, 73.65884616328277, -9.4593, 0.0623, -15.3011, -15.3028, -1.5701, -23.0056
21397.10302734375, 73.54941202449511, -11.4657, -1.3346, -9.3828, -17.5838, -2.7701, -16.9113
21433.370849609375, 73.77139799186936, -3.0649, -1.8489, -1.4925, -8.8611, -2.7601, -9.3503
21467.798828125, 73.6014217714389, 1.6950, -1.9253, 3.1445, -4.0791, -2.6154, -4.7519
21500.213134765625, 73.56463554286702, 5.0975, -2.1823, 5.1943, -0.7838, -2.6858, -2.6369
21534.43115234375, 73.47135822044679, 7.9423, -4.0306, 6.8813, 2.0161, -4.4221, -0.9224
21567.69189453125, 73.48334171435877, 9.1813, -5.1700, 7.3211, 3.3718, -5.5408, -0.5709
21599.0439453125, 72.41971174700295, 9.4602, -5.5061, 5.9226, 3.7537, -5.9108, -2.0424
21634.026123046875, 71.24019370615783, 6.7327, -5.4786, -0.0382, 0.9185, -6.2125, -7.9012
21663.719970703125, 72.03442718373226, 4.0580, -5.1485, -3.7541, -1.9091, -6.2065, -11.4642
21699.799072265625, 72.62800315099, -1.8793, -7.5322, -13.2436, -8.0783, -9.2175, -20.6531
21732.2109375, 72.5786080407981, -9.1922, -2.3035, -19.9926, -15.6231, -4.5153, -27.0582
21766.6650390625, 73.43897216323417, -9.1451, 0.7556, -17.0228, -15.2796, -1.9257, -24.1886
21801.669921875, 73.3561145387105, -1.6763, 0.2548, -0.5754, -7.1890, -2.8458, -8.0698
21832.655029296875, 73.36607145299816, 1.1506, 1.5722, 1.7722, -4.2133, -1.5673, -5.8134
21867.458984375, 73.57349459586311, 3.4418, 5.7285, 6.2999, -1.8244, 2.4373, -1.2899
21899.386962890625, 73.67631789383313, 3.6589, 6.4389, 9.2032, -1.5113, 3.0484, 1.5911
21934.95703125, 73.80852810608313, 3.5569, 8.1143, 11.5338, -1.2727, 4.5838, 3.7632
21962.925048828125, 74.12055332243348, 3.3320, 8.3947, 11.3343, -1.5079, 4.8740, 3.5657
22002.590087890625, 74.15448591020984, -3.2607, 8.0462, 4.4521, -8.1617, 4.8014, -3.3978
22031.100830078125, 73.99865476735047, -6.4336, 6.6344, 1.4868, -11.0910, 3.4858, -6.5484
22068.18603515625, 73.84717414695719, -6.0918, -0.2156, -5.0989, -10.4299, -3.0513, -13.4241
22098.10791015625, 73.76246338778135, -6.7799, 0.9848, -8.1733, -11.5591, -1.5422, -16.3552
22135.77490234375, 73.88929536328925, -8.9306, 0.0132, -10.2720, -14.5347, -1.6815, -18.1391
22164.27685546875, 73.61062096329849, -7.3625, -1.0285, -8.2760, -13.0180, -2.5610, -16.1396
22200.134765625, 73.44140761633447, 3.1768, -3.2932, 1.0715, -2.6374, -4.4085, -6.7466
22231.31201171875, 73.94361858777998, 5.7182, -3.4058, 3.9301, -0.1417, -4.4139, -3.8683
22266.7900390625, 71.46489803269728, 9.6561, -4.6874, 5.7573, 3.7043, -5.3629, -2.0074
22301.30908203125, 70.83680817143053, 9.1348, -5.8145, 5.5352, 3.1155, -6.4142, -2.1835
22331.052001953125, 61.44910148567406, 7.5877, -6.3734, 5.6009, 1.6076, -6.9845, -2.1473
22366.673095703125, 78.08820773060054, 5.9795, -5.1943, 1.3655, 0.1377, -6.0150, -6.4684
22398.56005859375, 73.33419658775897, 3.2408, -3.0517, -4.5268, -2.6992, -4.5179, -12.1908
22435.701904296875, 60.26375352649741, -2.9297, -6.9458, -15.6732, -9.1426, -9.5190, -22.8111
22464.572021484375, 61.870452261128165, -4.9955, -4.9945, -19.1901, -11.4841, -7.8904, -25.9490
22500.072998046875, 82.0533437795569, -10.7436, 2.0701, -13.4541, -16.9949, -1.5848, -20.0672
22534.929931640625, 72.88378598368269, -0.7586, 0.8978, -0.9976, -6.4413, -2.9830, -7.9845
22563.48095703125, 70.32556608163547, 0.4147, 0.9700, 0.5497, -5.0754, -2.9088, -6.5906
22602.85595703125, 73.06264879184542, 3.6262, 5.1449, 3.1442, -1.6620, 1.3689, -4.2006
22631.52197265625, 73.37244631015757, 3.9464, 6.8992, 4.5481, -1.3273, 3.0879, -2.7889
22668.471923828125, 74.63662729793586, 3.2268, 8.3931, 11.0326, -1.6137, 4.4487, 3.4707
22700.154052734375, 75.77709533873933, 2.5342, 9.5064, 12.3047, -1.9079, 5.5673, 4.4995
22733.778076171875, 74.86369490610336, 0.6233, 10.0818, 8.1649, -3.6458, 6.2870, 0.1933
22767.23486328125, 82.04565013873149, -1.5820, 8.4720, 3.1518, -6.0572, 4.8670, -4.7947
22799.715087890625, 92.16811266936536, -3.4450, 3.6637, 2.4708, -7.9468, 0.5103, -5.6508
22834.6611328125, 86.40576876730479, -9.9134, 0.0935, -14.9418, -15.2009, -2.1005, -22.9041
22863.093994140625, 76.13127057140599, -11.6207, 0.3901, -18.0121, -17.3940, -1.4819, -25.7151
22902.032958984375, 77.63435088973746, -8.4481, -4.9259, -7.5942, -14.6272, -6.0650, -15.1236
22932.90380859375, 76.63912897953261, -4.7882, -5.5391, -2.3507, -11.0036, -6.4115, -9.8858
22968.215087890625, 75.5622760735038, 1.5886, -3.6295, 1.5439, -4.6908, -3.9510, -5.9818
22996.451904296875, 66.98039281630432, 4.2257, -3.6833, 1.6723, -2.0047, -3.8797, -5.8983
23036.763916015625, 59.863353926507294, 8.8291, -6.6618, 3.1653, 2.7732, -6.7344, -4.5478
23062.288818359375, 67.17533477548801, 9.2467, -6.8577, 3.2555, 3.2153, -6.9890, -4.4760
23102.0107421875, 71.0649056081731, 8.0610, -5.2837, 1.3992, 1.9227, -6.0181, -6.2134
23132.541015625, 61.261553297893734, 5.8126, -4.0315, -0.8320, -0.3669, -5.1448, -8.3649
23165.123046875, 81.24357583672649, 2.1855, -3.5107, -4.9418, -3.8654, -5.3063, -12.4473
23198.470947265625, 80.68147746938213, -0.7563, -4.2828, -21.4164, -6.9795, -6.8567, -28.5450
23231.755859375, 72.55501361640768, -10.3233, 2.2874, -20.2909, -17.0944, -1.0723, -26.5387
23268.86279296875, 74.92789518367655, -1.0833, 2.6593, -7.5450, -6.7611, -1.3535, -14.4610
23298.779052734375, 78.40481704486206, 2.7788, 2.3453, -3.8750, -2.7553, -1.7936, -10.8330
23335.055908203125, 74.88979635918744, 4.3161, 5.4362, 3.3894, -1.4569, 1.0814, -3.2347
23364.14013671875, 92.06468819591333, 4.5220, 6.2100, 3.7439, -1.2972, 1.8515, -2.8373
23400.097900390625, 100.5036553142625, 6.6819, 10.2478, 4.0851, 0.6419, 5.7075, -2.1659
23432.56787109375, 128.6581922367154, 6.1746, 9.9325, 7.1075, 0.1181, 5.3051, 0.9369
23466.197021484375, 111.47112562448561, 3.2227, 8.0318, 10.0480, -2.3031, 3.2660, 3.4964
23501.218994140625, 94.60104762443646, 2.3482, 7.9040, 7.0006, -2.8555, 3.0764, 0.2340
23530.802734375, 88.18707715917286, 1.5211, 6.0955, 6.1501, -3.6257, 1.2179, -0.6241
23566.614990234375, 82.16087744489676, -3.3006, 1.8299, 3.3237, -8.7349, -2.9206, -3.3149
23598.7421875, 78.34564084076352, -12.9223, 1.2151, -9.7026, -18.6565, -2.9302, -16.4928
23631.322021484375, 78.41084469380675, -14.1599, 1.0864, -13.9248, -20.0101, -2.5341, -20.9131
23666.297119140625, 73.79944564078457, -9.5427, -2.4019, -6.4081, -15.5702, -5.7655, -13.3742
23699.480224609375, 76.51302431836574, -4.5545, -2.7786, -1.6395, -10.9586, -5.8327, -8.4093
23731.5771484375, 72.00059743675283, -1.8751, -1.5176, 0.5926, -8.6251, -4.3052, -5.9524
23763.9599609375, 75.27032411425134, 1.1873, -1.0945, 2.9342, -5.7398, -3.7707, -3.4707
23801.0478515625, 77.49808608977762, 6.8453, -1.1233, 3.4430, -0.1092, -3.8975, -2.8901
23830.97607421875, 86.3485805958958, 9.0536, -1.5125, 3.4091, 2.1284, -4.4432, -2.8856
23867.56591796875, 96.25248200814141, 10.7627, -3.2550, 1.7923, 3.9196, -6.7551, -4.2980
23898.445068359375, 88.08424443265099, 10.0790, -4.1279, -0.0360, 3.2986, -7.8302, -6.0766
23933.2109375, 82.40529014688317, 1.0736, -11.7959, -16.5782, -5.7265, -15.7860, -22.4099
23964.68701171875, 77.52007192650025, -2.6042, -11.6622, -23.3117, -9.6316, -15.8563, -28.7150
23998.473876953125, 77.57984589382862, -8.3660, -4.0647, -16.1014, -15.1520, -8.8593, -21.3102
24034.427978515625, 76.64129275911094, -0.2807, 0.9285, -10.1140, -6.3831, -4.6362, -15.4022
24064.1689453125, 76.25331411429018, 0.0841, 3.9536, -5.6900, -5.9945, -1.8317, -10.7646
24099.629150390625, 76.59372830204688, 0.5815, 8.0655, -1.0291, -5.4178, 2.0262, -5.8981
24130.541015625, 78.01033196732546, 3.0823, 10.9515, 2.1968, -2.6748, 4.6829, -2.6746
24165.6328125, 80.24372964083291, 5.2469, 11.6264, 6.3445, -0.3844, 5.2123, 1.5157
24200.10009765625, 80.48747207345772, 5.0064, 10.4905, 9.9216, -0.6283, 4.0576, 5.1218
24232.3408203125, 77.92376884897287, 4.9761, 10.2982, 9.0527, -0.6731, 3.9198, 4.1975
24267.625, 76.43985260402188, 1.5700, 7.8420, 1.9378, -4.7022, 1.7874, -2.5536
24298.52001953125, 75.65180635102044, -3.7571, 5.5460, -2.1325, -10.3281, -0.3283, -6.4319
24334.875, 75.1171520898102, -12.3631, -0.5360, -3.9766, -19.0870, -5.7166, -8.8879
24364.6630859375, 75.14477079182947, -7.8154, -1.1904, -7.8646, -14.1695, -5.9916, -13.5868
24401.9580078125, 54.01151612243383, -2.6459, -5.3785, -7.4828, -8.9456, -9.2100, -13.9483
24430.72802734375, 45.087288848979824, -2.6953, -5.4535, -6.1847, -9.1358, -9.0209, -12.6626
24469.553955078125, 58.34060684079499, 1.7565, -6.7851, 0.7835, -5.1704, -9.7815, -5.4782
24497.9130859375, 69.00888475099573, 4.2225, -7.5454, 3.4786, -2.9007, -10.4347, -2.6109
24532.38916015625, 103.01221490606423, 5.9845, -8.5445, 4.0662, -1.5897, -11.3089, -1.5158
24566.172119140625, 95.88984263667909, 8.6765, -8.0740, 2.1963, 0.8191, -10.8992, -2.9467
24599.29296875, 114.06006506934455, 9.5210, -5.8226, -3.3228, 1.5190, -8.8009, -8.1464
24634.10302734375, 81.61038217959312, 3.7997, -2.3272, -10.3648, -4.3772, -5.8591, -14.4677
24664.97509765625, 68.99981660414693, 2.7917, -3.0358, -11.7377, -5.3521, -6.8779, -15.6219
24698.5908203125, 58.90661087341729, 0.3318, -5.8623, -15.6824, -7.7798, -10.0877, -19.2207
24730.52294921875, 131.45331037553333, -4.7394, -6.4101, -17.5203, -12.8016, -10.9542, -20.7640
24767.33203125, 78.25976392651616, -4.8674, 0.5815, -13.6982, -12.6168, -4.4561, -16.9755
24798.640869140625, 130.0559219101881, -2.5236, 2.5691, -9.5254, -10.1535, -2.5875, -12.8965
24834.694091796875, 136.06586826124814, 1.9661, 6.2049, 0.4909, -5.3647, 0.7911, -3.1315
24863.85595703125, 56.72787711022013, 2.7560, 7.4782, 2.2529, -4.4128, 1.9930, -1.5800
24901.829833984375, 56.82859470205174, 4.6479, 11.4239, 3.7220, -2.2028, 5.8194, -0.5002
24932.69091796875, 100.72354245712924, 4.6509, 11.7186, 4.7966, -2.1509, 6.0765, 0.5453
24967.90087890625, 99.98528447343388, 3.6632, 10.3559, 5.9913, -3.0110, 4.6856, 1.5784
24996.22509765625, 87.13181072647757, 2.8793, 8.6130, 3.8811, -3.7963, 2.9541, -0.5442
25035.783935546875, 82.71985435916235, -4.5495, 1.1185, -3.9682, -11.3632, -4.3847, -8.3794
25061.60693359375, 65.33739234283271, -5.8952, -1.7013, -3.9775, -12.5639, -7.1853, -8.6278
25101.18896484375, 46.248575453045795, -2.6096, -3.8302, -5.9662, -8.6670, -8.7926, -11.8699
25131.60595703125, 57.472484285714174, -3.1583, -3.5161, -7.2901, -9.1481, -8.1930, -13.4885
25166.674072265625, 63.50439360812035, -2.3478, -2.7291, -8.0754, -8.3873, -6.8200, -14.6298
25202.587890625, 64.02620470201929, 0.4183, -3.6239, 0.9043, -6.0491, -7.0207, -5.6382
25231.013916015625, 83.22078944496508, 0.9834, -3.7180, 2.5030, -5.6138, -6.9040, -4.0160
25267.8681640625, 84.96591486529796, 4.7727, -3.8619, 5.2819, -2.0261, -6.3943, -1.3161
25298.636962890625, 76.49610239999016, 6.5554, -4.1453, 5.2642, -0.2686, -6.5314, -1.3623
25333.27294921875, 73.11323542855361, 8.4015, -3.9231, 5.1088, 1.4277, -6.0228, -1.4584
25365.34423828125, 75.22596721633602, 7.8000, -3.4940, 3.1718, 0.7458, -5.5665, -3.3176
25399.72900390625, 74.67957412243764, 5.8931, -2.8802, -1.3294, -1.2761, -5.1302, -7.6309
25432.716064453125, 76.05564889796189, 4.5562, -5.0732, -8.3918, -2.6624, -7.5995, -14.5303
25466.30712890625, 74.20332986931253, -0.4638, -7.9330, -17.0901, -7.8021, -10.8525, -22.9035
25500.610107421875, 72.4588916245645, -6.9061, -0.2054, -16.1237, -14.2687, -3.5648, -21.6623
25533.44775390625, 69.62617252248027, -7.0003, 0.5894, -12.7414, -14.2229, -2.9007, -18.3827
25567.277099609375, 63.732570555073025, -1.9577, 3.1958, -1.2502, -8.3426, -0.5017, -7.7102
25599.52783203125, 66.19066031833566, -0.0073, 4.2175, 0.5609, -6.0953, 0.4886, -6.1622
25634.549072265625, 67.49353657139251, 2.9935, 7.5046, 5.0159, -2.5096, 3.7932, -2.2030
25664.10986328125, 69.48305834287868, 2.6817, 7.8485, 6.9251, -2.6957, 4.1466, -0.3926
25701.110107421875, 70.30689583676865, 1.5074, 6.8985, 10.3281, -3.6033, 3.2603, 2.7906
25731.626220703125, 71.31816906942161, 1.2748, 6.6166, 10.5568, -3.7866, 3.0204, 2.9660
25767.881103515625, 72.97898106126908, -0.9763, 3.8787, 3.3759, -6.0296, 0.5409, -4.3372
25799.108154296875, 71.13439530617465, -2.8406, 2.2928, 0.1087, -7.9770, -0.9483, -7.5908
25835.323974609375, 72.4402043918405, -3.6556, -3.1973, -6.3952, -8.9097, -5.9704, -14.1975
25866.271240234375, 71.99517337149258, -3.1436, -3.1650, -9.2249, -8.4925, -5.7685, -17.0211
25900.654052734375, 71.647893665366, -3.3031, -5.1456, -6.9366, -9.0146, -7.1599, -14.6497
25933.132080078125, 71.73843634291254, -3.3602, -5.3384, -6.1842, -9.1156, -7.1465, -13.9157
25967.173095703125, 71.19179371438547, -0.2902, -3.9140, -1.8695, -6.1871, -5.2038, -9.5982
26000.072998046875, 71.2261064245899, 0.9781, -3.5874, 1.5192, -4.8960, -4.7311, -6.2498
26033.697998046875, 70.8164028000071, 4.4186, -3.2842, 5.0439, -1.1830, -4.1800, -2.9555
26065.978271484375, 70.8473096653185, 5.3929, -3.4648, 5.1621, -0.1440, -4.3598, -2.8823
26099.044921875, 70.85749053878408, 6.1196, -3.3833, 5.6657, 0.5987, -4.4392, -2.3701
26135.52490234375, 71.0882838367478, 3.6616, -3.6479, 2.5842, -1.7850, -5.1836, -5.4250
26167.93798828125, 71.24341804898319, 3.5651, -3.9538, -3.8864, -1.9181, -6.0355, -11.7460
26202.72509765625, 71.35456566529857, -1.8865, -8.3592, -11.7644, -7.8804, -11.0527, -19.0438
26232.110107421875, 71.88497494688161, -4.6953, -7.7806, -12.8852, -10.8939, -10.7109, -19.8967
26271.172119140625, 71.87945022035035, -7.1667, -1.0961, -10.4404, -13.1325, -4.5623, -17.4093
26300.5009765625, 72.4548269060857, 0.5384, 1.2630, -2.2397, -4.8605, -2.4524, -9.5348
26333.068115234375, 72.47930570607704, 1.8769, 1.5818, -1.0516, -3.2857, -2.1841, -8.4904
26371.154052734375, 72.93059879178507, 4.1915, 4.5649, 4.8555, -0.6282, 0.6454, -2.7325
26401.35595703125, 72.92752202443774, 2.8799, 5.1784, 5.6792, -1.8000, 1.1993, -1.9652
26437.3408203125, 72.51189399179839, 1.4776, 5.9340, 5.8372, -2.8708, 1.8615, -1.9523
26468.93603515625, 72.54068204892805, 1.0537, 6.1021, 4.6117, -3.0357, 1.8352, -3.2139
26503.170166015625, 72.98707804075892, -0.7858, 5.6478, 2.0864, -4.7422, 1.0918, -5.6440
26537.47705078125, 72.83260451425454, -1.5522, 3.9073, 1.1024, -5.2857, -1.0555, -6.4872
26569.48193359375, 72.56040386117725, -1.3405, -1.1367, 0.0257, -4.8578, -6.2177, -7.5889
26602.64208984375, 72.99503023668044, -2.8835, -0.3732, -10.3083, -6.8814, -5.3609, -17.7454
26636.169189453125, 72.3542224081326, -5.3113, -0.6838, -7.3051, -9.7284, -5.4064, -14.6778
26671.655029296875, 72.4075056407903, -2.6833, -1.4860, -2.3756, -6.7665, -5.7416, -10.2107
26701.455078125, 72.6760913142287, 1.0251, -1.5391, 2.0031, -2.7300, -5.1971, -6.2848
26739.555908203125, 72.66070821218409, 0.5308, -1.8626, 5.9518, -3.3618, -5.0383, -2.4704
26769.727783203125, 72.76786822853155, 1.1585, -2.1998, 8.1378, -2.6031, -5.0024, -0.4742
26803.720947265625, 72.80712928160007, 3.9786, -2.9031, 6.7482, 0.6973, -5.3890, -2.1525
26838.080078125, 72.93233902040318, 4.1816, -3.4248, 5.0057, 1.1194, -5.8703, -3.9840
26870.60986328125, 73.0801288163165, 2.9063, -2.1621, 0.4843, -0.3172, -4.9713, -8.3411
26905.1318359375, 72.81844291427636, 2.0034, -1.3261, -2.7109, -1.3123, -4.7324, -11.2884
26938.760986328125, 73.20182324084854, 2.9094, -5.6468, -4.1702, -0.5375, -9.5723, -12.4696
26972.341064453125, 72.77465527345745, -1.5157, -2.9398, -10.1419, -5.6059, -7.0032, -18.0747
27004.744140625, 72.60449508567281, -3.5502, -1.1008, -12.0773, -7.7556, -4.9343, -20.0642
27039.112060546875, 72.46160537954724, -2.2629, -0.0932, -5.2428, -6.1360, -3.5973, -13.5428
27070.19384765625, 72.50767038363843, 1.6718, 1.5324, 2.7794, -1.2339, -1.2983, -6.1489
27107.64794921875, 72.47102540403607, 2.4780, 2.0969, 4.4838, 0.2518, -0.1621, -4.7959
27138.758056640625, 72.39436485709152, 2.1049, 1.6720, 6.3562, 0.1758, -0.1329, -3.0879
27173.927978515625, 72.44551297139094, 0.1657, 2.5841, 9.1080, -1.4650, 0.9978, -0.4311
27205.218994140625, 73.27634422034686, -1.2732, 2.8562, 8.6903, -2.7378, 1.3684, -0.8915
27240.18310546875, 73.12516253068893, -2.1052, 4.0298, 4.3407, -3.9295, 2.6214, -5.1912
27272.468017578125, 73.13609220416247, -2.8595, 6.6901, -3.7543, -5.1275, 4.9578, -13.1365
27306.985107421875, 73.31900563269762, -3.5994, 1.6017, -1.1306, -6.1389, -0.4757, -10.3721
27338.755859375, 73.62078896321343, -2.2152, 0.5815, -9.3092, -5.7422, -1.5191, -18.2152
27373.487060546875, 73.60621593462672, -6.2411, 2.3112, -16.2703, -11.0997, 0.3268, -24.5545
27407.6630859375, 73.82353457138916, -4.6393, -1.1906, -1.6008, -9.8764, -3.0532, -9.6801
27440.7490234375, 74.1929491183401, -0.4074, -3.2984, 1.1743, -5.6554, -4.7034, -6.9899
27474.9541015625, 74.11980860404482, 3.8225, -4.0000, 4.7410, -1.6661, -4.9250, -3.3330
27506.014892578125, 74.26726675107024, 5.5546, -5.5884, 6.2064, 0.1118, -6.1699, -1.9305
27541.85400390625, 74.15768547760065, 7.6262, -7.4793, 7.6980, 2.6145, -7.8192, -0.7244
27575.191162109375, 74.38416668575016, 6.8924, -7.1592, 5.5932, 2.1412, -7.5226, -2.9779
27605.722900390625, 74.38675022047563, 3.7748, -5.1598, 0.0778, -1.0006, -5.8435, -8.4602
27644.0322265625, 75.0835847510866, 1.1921, -3.3149, -5.6457, -3.6860, -4.7862, -14.0248
27671.870849609375, 74.94585563268772, 2.1538, -4.8691, -4.3325, -2.6184, -7.2217, -12.5703
27708.9990234375, 74.73997381226012, -1.8532, -2.7806, -12.4116, -7.1703, -5.4790, -20.1973
27740.2158203125, 74.07169612239576, -9.6669, 1.6095, -12.7392, -15.7238, -1.2480, -19.9030
27777.970947265625, 73.58808342037013, -3.2380, 1.7183, -2.3420, -8.8279, -1.2323, -9.8399
27807.177001953125, 73.55033995101266, 4.2616, 2.4507, -0.7151, -1.0295, -0.3912, -8.4674
27843.626220703125, 73.37591164893702, 4.1057, 3.9010, 2.8782, -1.5446, 1.1592, -4.6536
27876.06396484375, 73.3486406856505, 3.4811, 4.7223, 7.7145, -2.2486, 2.0931, 0.2026
27908.73583984375, 73.56306661219682, 4.1531, 5.0026, 8.6537, -1.3288, 2.4945, 0.9188
27942.556884765625, 73.87129590200755, 3.6470, 5.5638, 6.0842, -1.7904, 3.0531, -1.6812
27976.333984375, 73.91459528976752, -1.3750, 5.7416, 2.9362, -7.0107, 3.1421, -4.6567
28011.672119140625, 74.0122794203803, -5.5905, 6.0431, -3.4366, -11.2370, 3.3215, -10.9785
28042.7060546875, 74.1150309224275, -4.9166, 1.6424, -1.5042, -10.2608, -1.0581, -9.2706
28076.85107421875, 74.31971866942217, -4.9767, 1.8383, -12.5097, -10.5517, -0.3817, -20.2660
28109.72998046875, 74.16737873473073, -8.4979, 0.7904, -9.8806, -14.7106, -1.1619, -17.2128
28143.857177734375, 74.38988050614161, -5.9796, -3.4151, 1.1631, -12.0946, -4.9723, -6.3437
28176.798828125, 73.8935398693832, 1.7587, -3.8742, 0.4480, -4.2219, -4.9493, -7.2492
28210.22705078125, 73.45565426935407, 4.5680, -4.2135, 0.4444, -1.8970, -5.0438, -6.8826
28245.458984375, 73.25709758363828, 5.5406, -4.1114, 3.4371, -1.4542, -4.9078, -3.3900
28278.6142578125, 73.10375486528434, 6.9435, -5.1031, 6.2711, 0.1695, -6.0062, -0.7623
28310.4169921875, 73.01258516733684, 8.4071, -4.2753, 3.7616, 1.8423, -5.4420, -3.4295
28342.69921875, 72.57682564890099, 7.3784, -2.5162, 3.1933, 0.6149, -4.2433, -3.6946
28380.751953125, 72.61318257136114, 2.4800, -1.4485, -1.6940, -4.4667, -3.8276, -8.1943
28410.054931640625, 72.4875326530041, 1.5408, -6.1641, -4.6822, -5.4039, -9.1327, -10.9376
28443.9951171875, 72.52180592648065, -6.1278, -4.5459, -14.7085, -13.4951, -7.7367, -20.3398
28476.4482421875, 72.36571258769506, -12.1611, 2.2359, -9.6158, -19.8180, -1.0967, -14.7574
28511.44189453125, 72.49064880812928, -5.0551, 1.3658, -4.3421, -12.1827, -1.9861, -10.1843
28546.457763671875, 72.67955436734684, 3.1060, 0.1266, 0.2264, -3.6181, -3.0999, -6.1413
28578.793212890625, 72.68119980407869, 4.8267, 2.9708, 2.1304, -1.9420, -0.0727, -4.2799
28613.522216796875, 72.80278262044521, 3.8307, 5.1006, 2.1489, -3.0718, 1.9869, -4.0826
28645.091064453125, 73.62711095506728, 3.5435, 5.1171, 7.1548, -2.9887, 1.8723, 0.5994
28678.97607421875, 73.8780975101694, 5.1704, 5.7183, 9.5036, -0.6502, 2.3302, 2.3753
28713.93310546875, 73.84570367343507, 3.9333, 6.4977, 7.0966, -1.7397, 3.1060, -0.1480
28745.364990234375, 73.69431455505133, -2.4792, 7.4658, 2.1220, -8.4900, 4.0474, -4.8318
28781.037841796875, 73.64049990199557, -7.7591, 3.0924, 1.7804, -13.6130, -0.2607, -5.3371
28812.97998046875, 73.72204120812104, -7.7601, 0.3429, -10.2225, -13.6832, -2.4407, -17.5259
28845.93701171875, 73.54640231014383, -11.8528, 2.9056, -19.0408, -18.7159, 0.6042, -25.6567
28880.698974609375, 73.6173668652591, -10.5280, -1.4689, 0.1130, -17.4919, -3.5000, -6.4862
28912.8828125, 73.73338495505894, -1.7121, -2.6863, 1.4305, -8.0342, -4.4291, -5.8609
28947.8349609375, 73.60368956729843, 3.5591, -3.0373, 3.8127, -2.7406, -4.5975, -3.5391
28980.80419921875, 73.6272349305639, 6.4740, -1.7751, 4.9527, -0.0944, -3.2166, -2.1852
29014.5, 73.64153580403587, 7.4289, -2.2071, 5.9829, 0.8399, -3.6390, -1.1378
29048.34814453125, 73.56631857953866, 8.8678, -2.8106, 4.5926, 2.4205, -4.3624, -2.6320
29081.3271484375, 73.48110912646685, 8.2755, -1.8823, -0.5779, 1.8197, -3.8298, -7.6983
29113.7880859375, 73.597544628522, 3.5615, -2.0489, -1.3102, -2.8074, -4.5774, -8.3255
29149.72607421875, 73.73164196730494, 2.8543, -1.2421, -5.5654, -3.0484, -4.3573, -12.7503
29180.05908203125, 73.83889923262045, 4.0775, -9.0409, -13.1591, -1.7134, -12.5441, -20.2558
29215.279052734375, 73.6106601877058, -6.6075, -2.4087, -16.0468, -13.2881, -6.0837, -22.2140
29248.057861328125, 73.74983210608104, -10.9672, -1.7816, -6.7325, -17.3954, -5.5164, -13.1279
29283.718017578125, 73.8441649550697, 0.9259, -1.9917, -1.6500, -4.5014, -5.6153, -8.9702
29314.875, 73.7506613387389, 1.3667, 0.8658, 0.5972, -3.9635, -2.6730, -6.8350
29348.794189453125, 73.76412509384282, 1.8625, 5.4271, 2.9577, -3.4720, 1.8759, -4.4653
29381.259033203125, 73.94490767344043, 2.1288, 8.2180, 9.3708, -3.0115, 4.4888, 1.8982
29418.363037109375, 74.06664475915773, 2.6636, 8.9281, 11.1271, -2.0243, 5.0588, 3.4315
29444.432861328125, 74.06893656324425, 2.8216, 9.0557, 9.7253, -1.8522, 5.1938, 2.0174
29480.504150390625, 74.43205727349806, 0.8834, 8.2866, 2.7497, -4.0718, 4.3446, -4.7387
29512.364990234375, 74.59308865305938, -3.0872, 4.3428, 0.1407, -8.4309, 0.3903, -7.0699
29552.5791015625, 74.63811244899938, -11.7844, -0.0919, -9.1255, -17.7801, -3.3537, -16.1670
29580.541015625, 74.62613103677508, -12.2458, 1.2641, -12.2251, -18.3206, -1.7145, -19.3240
29616.60693359375, 74.47290635923305, -4.2158, -2.8603, -4.4495, -10.4320, -5.2191, -11.6583
29645.77392578125, 74.52369208167194, -3.4227, -2.8090, -3.2006, -9.7698, -5.0079, -10.3455
29680.170166015625, 74.22307338779716, -0.9719, -0.6690, 3.0533, -7.5265, -2.5821, -3.9857
29717.069091796875, 74.16698520819132, 5.3738, -0.6721, 6.8093, -1.0032, -2.1407, -0.4947
29750.3701171875, 74.26389193471736, 8.0689, -1.9809, 7.3411, 1.7042, -3.2009, -0.0192
29787.428955078125, 74.41954573882381, 9.8605, -4.5306, 6.7023, 3.3775, -5.6370, -0.5721
29816.800048828125, 74.39280173065163, 8.7573, -5.6818, 1.6547, 2.1551, -6.8118, -5.5080
29853.566162109375, 74.34223364084812, 5.6653, -5.0962, -4.6731, -1.0949, -6.6738, -11.5999
29885.529052734375, 74.49892155105292, 0.1886, -8.7025, -10.6548, -6.6204, -10.9638, -17.3402
29918.248046875, 74.26394926534064, -9.2206, -7.0121, -20.8917, -16.2210, -9.6521, -27.2316
29951.468994140625, 73.96571669391754, -14.6264, -0.2830, -17.2502, -21.6352, -3.3104, -23.4050
29985.322021484375, 74.06053075106853, -4.6702, 1.4922, -5.6985, -10.9871, -1.9784, -12.3485
30021.47998046875, 74.03939900410705, 2.5563, 2.1204, 1.2116, -3.3058, -1.5552, -5.7380
30051.445068359375, 73.91702988572798, 3.8880, 6.3899, 2.2794, -2.0075, 2.5115, -4.5303
30088.56787109375, 73.85804865306181, 3.6208, 7.5023, 10.1280, -2.3499, 3.4064, 3.5141
30119.2041015625, 73.97869297141291, 3.9373, 8.4267, 10.7826, -1.7617, 4.2442, 3.9856
30151.7841796875, 73.86023647345536, 5.1117, 9.3384, 8.4251, -0.3958, 5.1359, 1.4841
30187.823974609375, 73.6859987836621, 2.6483, 8.6181, 5.6579, -2.9739, 4.4389, -1.2047
30219.26708984375, 73.63869830202634, -0.6332, 7.3544, -0.0124, -6.3612, 3.2069, -6.8064
30254.614013671875, 73.70866747754141, -7.2796, 4.6053, -3.5572, -13.2467, 0.6110, -10.2363
30287.98388671875, 73.72725314284426, -11.7302, 0.6348, -4.1888, -17.9260, -2.8879, -10.9247
30321.1142578125, 73.77104409794708, -13.4107, 0.9478, -10.7334, -19.8647, -2.0090, -17.4991
30352.5009765625, 73.65152590203047, -9.4867, 0.0393, -3.3322, -15.9671, -2.4473, -10.2598
30390.659912109375, 73.75075124080234, -0.4090, -1.2629, 0.9189, -6.7359, -3.3465, -6.2782
30419.052978515625, 73.72708382039843, 4.1616, -2.0478, 3.6084, -2.2866, -3.8051, -3.5681
30457.590087890625, 73.73987059591083, 7.6923, -3.9947, 5.5912, 1.1072, -5.4573, -1.5269
30487.141845703125, 73.83822731427568, 9.3066, -5.7885, 5.8407, 2.7871, -7.0877, -1.3689
30521.270751953125, 73.86049402447648, 9.0609, -6.1152, 3.3847, 2.5657, -7.3653, -3.8554
30554.720947265625, 73.79193325713398, 6.7655, -4.7338, -2.0100, 0.0420, -6.2064, -8.9955
30589.02978515625, 73.77736294692573, 0.4886, -3.6462, -4.9120, -6.2535, -5.7103, -11.7277
30622.904052734375, 73.92792825304325, 1.9008, -6.2794, -7.6447, -4.5840, -8.8901, -14.5223
30654.19482421875, 73.96048918365527, -5.3115, -4.6794, -15.6251, -12.3667, -7.6574, -21.7510
30688.301025390625, 73.79409390202565, -13.5849, 1.4407, -10.8641, -20.7814, -1.7301, -16.7230
30721.076171875, 73.96790471835023, -4.7185, 0.9504, -4.1403, -11.3826, -2.3463, -10.5349
30757.739013671875, 73.94946183672303, 3.3616, 1.1779, -0.4521, -2.8475, -2.1211, -7.2884
30789.009033203125, 73.80209194284363, 4.9755, 4.2776, 3.5598, -1.2927, 1.0132, -3.2391
30824.139892578125, 73.82874791835685, 4.1172, 5.4979, 6.6308, -2.2336, 2.2528, -0.1003
30857.22802734375, 73.85186996733566, 3.2012, 6.6041, 8.5115, -3.0052, 3.3408, 1.6557
30888.60400390625, 73.77640055509201, 2.5675, 8.0588, 7.0172, -3.5346, 4.6986, 0.1148
30924.532958984375, 73.57863771426457, -0.1485, 7.8774, 4.9039, -6.2719, 4.4146, -1.9287
30956.77392578125, 73.4804658530325, -3.6645, 7.3053, 0.7062, -9.6033, 3.6304, -6.1782
30992.4951171875, 73.47532841629832, -3.8835, 3.4382, -1.1613, -9.3027, -0.2744, -8.4427
31021.748046875, 73.46757324078266, -4.0512, 1.7012, -7.6269, -9.3521, -1.6905, -15.1481
31059.921875, 73.36925672649025, -6.6346, 1.4948, -11.5717, -12.4712, -1.3650, -18.9151
31088.01904296875, 73.35789077547288, -7.6856, -2.1051, -1.5616, -13.7321, -4.4740, -8.9100
31128.283203125, 73.46390813874027, -1.4430, -3.4713, 1.5396, -7.2001, -5.3994, -6.1616
31153.945068359375, 73.50372343670615, 3.5904, -4.8849, 4.6735, -1.9917, -6.2996, -3.2643
31195.7900390625, 73.52209962445143, 5.2735, -5.3899, 6.9668, -0.3112, -6.4696, -1.0216
31224.362060546875, 73.74660983671768, 7.0397, -6.0791, 7.1068, 1.7979, -6.9596, -1.1344
31256.837890625, 73.87362587752648, 7.8174, -5.8070, 5.0324, 2.9175, -6.6150, -3.4239
31292.677978515625, 73.7445683020229, 4.6728, -3.2652, -0.6952, -0.3772, -4.3564, -9.0305
31324.564208984375, 73.61090043263374, 0.7862, -2.3813, -4.2047, -4.3530, -4.0012, -12.3984
31359.60107421875, 73.60889871834594, -0.1097, -4.5078, -7.8481, -5.1565, -6.6387, -15.9819
31390.89208984375, 73.4698282285413, -6.3693, 0.0802, -13.3666, -12.0086, -2.1602, -21.0705
31425.796142578125, 73.4489036162977, -9.0144, 3.4000, -12.1805, -14.9057, 1.2002, -19.7055
31458.388916015625, 73.49878984487029, -3.4053, 0.9673, -2.9435, -8.8237, -1.2215, -10.8188
31494.287109375, 73.50472362445996, 3.4607, 0.9410, 1.8253, -1.6697, -1.1226, -6.2736
31526.346923828125, 73.45695511833405, 3.6597, 1.6976, 5.1881, -1.6258, -0.2342, -2.8433
31559.7900390625, 73.54085361629942, 3.7869, 2.0706, 7.8762, -1.5606, 0.1929, -0.1269
31594.014892578125, 73.67412623671262, 3.8654, 3.3814, 7.8639, -1.4283, 1.4132, -0.1532
31622.321044921875, 73.66668021222254, 2.6433, 4.3583, 8.3073, -2.7276, 2.1319, 0.4100
31664.93701171875, 73.62327125712011, -0.0805, 5.8150, 6.2908, -5.4679, 3.3423, -1.5215
31692.18798828125, 73.6085049958944, -3.2744, 6.6721, -2.5425, -8.4997, 3.8023, -10.3290
31728.531005859375, 73.64032694692614, -5.4515, 2.6254, -4.2455, -10.4694, -0.5519, -12.0491
31758.462158203125, 73.529514277527, -5.0122, 3.0768, -8.9552, -10.2259, -0.1104, -16.6252
31796.430908203125, 73.44751633465746, -8.4868, 2.2923, -9.7915, -14.3039, -0.7287, -17.0858
31824.244140625, 73.40025776323323, -6.8958, -2.0758, -0.4044, -12.8081, -4.7710, -7.7494
31860.555908203125, 73.37485074281969, -0.8342, -3.4910, 0.9855, -6.6189, -5.8377, -6.5776
31892.5390625, 73.35310857955302, 4.3048, -3.8904, 4.6010, -1.2477, -5.8220, -3.2482
31929.97998046875, 73.3856448571001, 6.5890, -4.4035, 6.2520, 1.3195, -5.9592, -1.8709
31963.267822265625, 73.45562959179568, 6.9846, -5.7446, 6.5286, 1.8395, -7.1272, -1.7047
31993.998046875, 73.4826879836362, 5.8799, -4.3475, 5.3627, 0.8252, -5.7314, -2.9262
32029.1181640625, 73.49025086526666, 3.8129, -1.6027, 1.7458, -1.2249, -3.2953, -6.4959
32060.366943359375, 73.38101929791642, 0.1751, -0.0274, -0.0642, -4.6454, -2.2341, -8.3143
32096.231201171875, 73.41050702037539, 0.8753, -6.3583, -1.9593, -2.9516, -8.9408, -10.6112
32127.30615234375, 73.35401094689693, -1.0287, -1.3813, -19.2905, -5.2952, -3.8660, -27.7636
32163.89990234375, 73.33538208975715, -6.6343, 1.8703, -19.4653, -11.5266, -0.6934, -27.5686
32195.976806640625, 73.57803631833808, -2.5654, -1.1060, -5.7364, -6.8251, -3.6960, -14.1813
32230.39404296875, 73.57283523261908, 2.6305, 0.5506, -1.3772, -1.4575, -2.0102, -9.9154
32262.93505859375, 73.54337443261527, 1.8957, 2.7018, 5.6738, -2.4433, 0.1134, -2.7312
32297.738037109375, 73.6354059020177, 2.4505, 4.9815, 10.5300, -1.8184, 2.3222, 2.1112
32329.215087890625, 73.64209426120063, 3.0301, 5.3995, 12.0982, -1.0883, 2.6131, 3.6456
32363.6162109375, 73.5888509795686, 2.1843, 5.6916, 10.7596, -2.1141, 2.8590, 2.4128
32397.257080078125, 73.47790032650039, -1.7021, 7.5573, 1.9843, -6.4196, 4.6208, -6.0961
32430.369873046875, 73.35509407343302, -6.3424, 7.7544, -3.5667, -10.9042, 4.5783, -11.6458
32465.281005859375, 73.3370908979228, -6.8389, 1.7054, -2.8423, -10.7334, -1.5268, -11.2421
32496.904052734375, 73.26573071016388, -3.6341, 1.2592, -11.4196, -7.5830, -1.6077, -19.9259
32531.6611328125, 72.95967053875658, -6.3419, 1.7036, -11.2054, -11.1300, -0.9140, -19.3535
32564.43896484375, 73.18405064487091, -6.9626, -2.0792, 1.0790, -11.7395, -4.4031, -7.1642
32598.41796875, 72.94377130614282, 0.7729, -2.4612, 2.7666, -3.7867, -4.3378, -5.7103
32631.427978515625, 73.28038493066353, 4.5484, -2.7647, 4.5927, -0.0961, -4.3277, -3.9018
32665.39306640625, 73.05219875106448, 5.8874, -4.3208, 4.2962, 1.3636, -5.5981, -4.3105
32695.659912109375, 73.0849276653487, 5.6051, -4.5242, 2.0896, 1.0799, -5.8221, -6.5133
32734.658935546875, 73.71750157546484, 2.6442, -3.4470, -1.5644, -1.6367, -5.2270, -10.2059
32762.994873046875, 73.75433404076912, 2.0233, -2.0970, -4.1643, -2.1386, -4.1725, -12.7981
32800.68798828125, 73.51185828564394, 0.5665, 0.5882, -6.5883, -3.4611, -3.1747, -14.6993
32831.799072265625, 73.45914451421504, 2.0358, -5.0315, -1.9609, -1.8353, -9.2692, -9.9124
32867.537109375, 73.3446001958487, -0.7716, 0.7084, -9.6017, -5.4941, -3.8880, -16.8640
32897.12109375, 73.19608611422659, -2.7172, 1.4498, -6.1929, -7.6637, -3.1981, -13.2711
32934.39599609375, 73.3078279264601, 2.1671, 0.0674, -0.8252, -2.6558, -4.3678, -8.1217
32964.794921875, 73.30148460400837, 4.1018, 3.2331, 0.3585, -0.7721, -1.0747, -6.9803
33000.09912109375, 73.38059480808795, 4.2276, 7.0823, 3.0178, -0.8351, 2.9432, -4.2903
33033.65087890625, 73.52867159993735, 2.1575, 7.2508, 6.3580, -3.0692, 3.3445, -0.9628
33067.318115234375, 73.60139142035877, 1.2730, 7.9348, 5.9109, -3.9450, 4.0420, -1.4232
33098.35302734375, 73.63501605709155, 0.6804, 8.4069, 5.3429, -4.5018, 4.5017, -2.0099
33135.64013671875, 73.6643744734257, -3.6596, 9.4892, -0.9400, -8.6815, 5.5447, -8.3825
33165.63818359375, 73.56907996729325, -6.3939, 5.6937, -1.3513, -11.3945, 1.6707, -8.7662
33203.929931640625, 73.45993450605742, -8.4388, -4.5927, -5.7007, -13.5952, -7.8735, -13.3700
33230.159912109375, 73.13428887342552, -8.7783, -2.2828, -10.6205, -14.2388, -5.1427, -18.2477
33269.527099609375, 72.99936615511434, -7.5613, -3.2256, -6.3202, -14.0300, -5.3524, -13.3773
33301.572998046875, 72.8341907673332, -0.8613, -3.7952, 1.9476, -7.3046, -5.6318, -5.2135
33336.619873046875, 73.13329520001433, 4.2759, -3.0491, 4.7946, -2.1018, -4.7060, -2.4683
33364.8798828125, 73.21773352655545, 6.7860, -2.3589, 5.4903, 0.3576, -3.9334, -1.7463
33405.52197265625, 72.92464138778804, 8.7477, -2.4534, 6.2741, 2.1916, -4.0119, -0.8504
33432.14599609375, 72.98579951023272, 8.8289, -2.4653, 6.4230, 2.3498, -4.0722, -0.7609
33471.258056640625, 73.08054875104358, 9.4148, -2.3637, 2.9141, 3.3918, -4.3344, -4.5699
33500.368896484375, 73.49143711013832, 6.7953, -2.6667, -4.2024, 0.6895, -5.0979, -11.4811
33537.852783203125, 73.6661036979124, 1.4282, -7.5162, -9.1246, -4.8074, -10.7170, -15.9834
33567.41796875, 73.64302345300273, -4.4855, -7.1732, -17.2932, -10.8475, -10.6330, -23.9057
33602.6259765625, 73.32220223666245, -12.1663, 1.9779, -11.8780, -18.7478, -1.6108, -18.2006
33633.44384765625, 73.32174605707338, -12.1280, 2.3515, -8.9208, -18.4918, -1.2585, -15.4508
33670.890869140625, 72.93797870205695, -0.1844, 1.7226, -0.9131, -5.4959, -1.8676, -8.3339
33702.2958984375, 72.84381180407581, 3.0115, 6.1238, 3.7787, -2.0494, 2.5549, -3.8253
33737.947998046875, 73.05956438368854, 2.8415, 7.1883, 7.0718, -2.1284, 3.5732, -0.5703
33769.25, 73.12302961634882, 1.2127, 6.9754, 11.2626, -3.5726, 3.3121, 3.5262
33804.7109375, 72.93365551837765, 1.5286, 7.0907, 10.6600, -3.0763, 3.4867, 2.7874
33837.02685546875, 73.42947499586393, 0.9554, 7.7736, 5.7895, -3.7038, 4.2799, -2.1008
33870.60302734375, 73.26962497146782, -1.4114, 7.0689, 0.1191, -6.4501, 3.5460, -7.5209
33904.721923828125, 73.26017698778293, -6.0985, 1.5904, -2.4379, -11.2709, -2.0559, -9.9294
33938.3798828125, 73.56700983667274, -7.7843, -2.1300, -8.6745, -13.1175, -5.5592, -16.1556
33970.2958984375, 73.33784945299688, -9.3471, -0.6251, -13.7725, -15.5020, -3.7748, -20.7272
34005.35400390625, 73.31528488972876, -9.1503, -3.4971, -1.1121, -15.6766, -6.5276, -7.7749
34038.241943359375, 73.53441992648823, -2.1211, -3.3769, 0.8198, -8.4851, -6.1654, -6.1009
34072.096923828125, 73.37794954286983, 3.1779, -2.4905, 2.9845, -3.0683, -4.9514, -4.1638
34105.5009765625, 73.03370898778026, 6.9041, -1.8609, 5.6306, 0.7075, -4.0707, -1.6420
34138.22998046875, 73.44288629380966, 8.2272, -2.2346, 6.2566, 2.1784, -4.2811, -1.1862
34172.821044921875, 73.4016863102309, 9.3373, -2.8338, 6.2150, 3.5180, -4.8179, -1.4250
34203.705810546875, 73.6731917305845, 8.0027, -3.0785, 4.9464, 2.3544, -5.1779, -2.7904
34239.5439453125, 73.80672959179253, 3.8500, -2.9068, -1.4452, -1.7939, -5.3038, -9.0984
34272.076904296875, 73.78727215505563, 0.4396, -3.5624, -8.0093, -5.3335, -6.6961, -15.2909
34306.9130859375, 73.63518587749472, -2.4840, -6.2157, -12.7896, -8.2479, -9.8595, -19.8373
34337.9599609375, 73.42852341217571, -7.7226, -1.0527, -13.2444, -13.7852, -4.8562, -19.9488
34373.972900390625, 73.27444507748953, -6.5589, 1.2772, -8.3872, -12.4189, -2.4798, -15.2949
34404.695068359375, 73.29346780401121, 0.7061, 0.2455, -1.1558, -4.6864, -3.3100, -8.5349
34441.703857421875, 73.30891900400913, 3.1597, 2.5175, 0.9145, -2.0861, -0.7596, -6.6955
34472.23193359375, 72.99853373063169, 3.4403, 4.5153, 3.4177, -1.8762, 1.4799, -4.2434
34508.412841796875, 73.09528800002548, 3.2303, 5.6125, 6.9980, -2.0482, 2.6502, -0.7177
34538.23486328125, 73.21806513472262, 2.3367, 5.5883, 7.9538, -2.8787, 2.6350, 0.1918
34575.532958984375, 73.56809706934268, 1.6477, 5.7674, 7.4203, -3.5362, 2.7764, -0.3484
34606.605224609375, 73.63677463667541, 0.1760, 5.5541, 4.3035, -4.8610, 2.5045, -3.5386
34640.505859375, 73.51508002442286, -3.8066, 4.3922, -1.9338, -8.7959, 1.1624, -9.7342
34672.171875, 73.29558888973891, -6.5648, 1.3125, -1.4130, -11.6466, -2.1063, -9.0718
34708.26025390625, 73.36778530606557, -7.1989, -0.2215, -6.0141, -12.5410, -3.3951, -13.6010
34740.85595703125, 73.42234777954023, -9.8506, -0.4628, -10.9100, -15.8674, -3.2724, -18.1262
34775.7509765625, 73.44215564076244, -9.4276, -0.6934, -4.6607, -15.8447, -3.3335, -11.5905
34808.058837890625, 73.59037201627964, -1.9999, -0.6110, 0.6837, -8.3305, -3.1193, -6.3734
34843.381103515625, 73.72965183669619, 4.5140, -0.8853, 3.3206, -1.6272, -3.2346, -3.9552
34873.7431640625, 73.79464897955593, 7.5021, -0.8170, 4.7938, 1.2710, -3.0773, -2.4336
34911.00390625, 73.89847504487129, 8.4720, -1.5936, 6.6369, 2.1307, -3.8081, -0.5083
34939.43603515625, 73.94443391833755, 8.0048, -2.2219, 5.3545, 1.9193, -4.4806, -1.9963
34978.828125, 73.8804927918043, 7.8138, -1.7720, 2.8982, 1.9692, -4.2754, -4.5680
35006.692138671875, 73.72332976323048, 3.2101, -2.0558, -2.6790, -2.4681, -5.1190, -10.0645
35040.2490234375, 73.55611181221111, 3.2182, -8.0514, -6.1239, -1.9592, -11.7874, -13.5675
35078.64111328125, 73.4437496815896, 1.7791, -8.6573, -14.0520, -3.7923, -12.7509, -21.0070
35108.978759765625, 73.25734343668778, -9.4087, -0.4431, -9.2680, -15.3232, -4.6467, -15.8649
35143.796142578125, 73.37888126525392, -4.2245, 0.7597, -5.5673, -9.5060, -3.3917, -12.7117
35177.2861328125, 73.44208142035302, 0.8549, -0.1964, -1.7056, -4.0143, -4.1053, -9.2674
35208.675048828125, 73.38101191014226, -0.1489, 3.0357, 1.7873, -5.0489, -0.5590, -5.9093
35245.06396484375, 73.43907069381821, 0.2117, 5.2866, 3.4765, -4.5726, 1.8381, -4.3586
35276.316162109375, 73.58484428566908, 1.8342, 5.9496, 6.6095, -2.7432, 2.4273, -1.3159
35311.89892578125, 73.68660370608033, 0.3732, 6.7143, 9.2346, -4.1798, 3.0372, 1.3657
35342.649169921875, 73.7237209795546, -1.2783, 8.2052, 7.4151, -5.8469, 4.3967, -0.3819
35379.37109375, 73.7408888489491, -2.2900, 8.7562, 3.2016, -6.8093, 4.7941, -4.5475
35411.10595703125, 73.76903031833481, -5.2682, 3.4061, 0.2297, -10.0042, -0.6140, -7.3584
35444.56494140625, 73.71687982853463, -6.7223, -0.4146, -6.3270, -11.9159, -4.0525, -13.8078
35479.118896484375, 73.65218852241577, -8.4413, 0.5183, -13.8476, -14.1164, -2.6695, -21.1825
35509.963134765625, 73.74315489792511, -8.8067, -2.5496, -6.2420, -14.7821, -5.3723, -13.4874
35546.731201171875, 73.8386111918027, -3.2252, -3.1509, -1.3518, -9.0847, -5.6187, -8.8181
35578.5439453125, 73.81830913466281, 2.4501, -2.6478, 2.3995, -3.2780, -4.9086, -5.2325
35610.147216796875, 73.8204771509868, 7.1334, -2.5009, 4.9169, 1.3018, -4.7419, -2.6423
35646.06005859375, 73.85668716731739, 7.9249, -2.6515, 6.7027, 1.8717, -5.0362, -0.6351
35679.7900390625, 73.90960840813163, 7.9193, -1.9039, 6.3839, 2.1085, -4.4359, -1.0991
35712.475830078125, 73.94530670201135, 8.1850, -1.8948, 3.9440, 2.8397, -4.6808, -3.7914
35743.296142578125, 73.83607342037594, 5.6621, -0.7564, -1.5719, 0.4344, -4.0811, -9.1737
35782, 73.81001582037662, 2.8634, -2.6852, -3.3811, -2.2001, -6.6017, -10.8103
35811.447998046875, 73.77958066119525, -2.3144, -7.7161, -15.0751, -7.5762, -12.0072, -22.1512
35845.85498046875, 73.45996072649012, -11.0114, -2.1186, -14.5221, -16.7347, -6.6997, -21.0358
35881.27294921875, 73.62660697140319, -7.8078, -1.2778, -7.4264, -12.8789, -5.9451, -14.4029
35913.90283203125, 73.75924964894739, 3.0997, -1.5568, -1.1947, -1.2403, -6.1157, -8.7147
35946.498046875, 73.7856281142535, 2.4051, 1.3462, 0.1656, -1.7798, -3.0236, -7.5521
35981.2109375, 73.90981387752808, 0.7976, 4.9095, 1.7488, -3.2642, 0.5474, -6.0386
36013.3330078125, 74.13164003262747, 1.3359, 7.7337, 7.8592, -2.3447, 3.1409, 0.0151
36048.227783203125, 74.22135902854212, 1.2646, 7.8677, 10.8404, -2.1516, 3.0435, 3.0156
36079.697021484375, 74.35629302855584, 0.1042, 7.8977, 10.3887, -3.3447, 2.9739, 2.6407
36112.97705078125, 74.26800520000887, -2.3344, 8.2798, 0.9735, -5.6395, 3.3918, -6.8594
36147.35986328125, 74.2265719020767, -5.3830, 4.7249, -6.7854, -8.2959, -0.2846, -14.6968
36180.4482421875, 74.12699726533388, -4.6832, -1.4446, -4.0868, -7.3937, -6.4793, -12.0539
36213.323974609375, 73.62251737958834, -5.4224, -1.9748, -7.0230, -8.6977, -6.8301, -14.8886
36247.549072265625, 73.38537866118283, -7.3976, -2.4199, -5.7961, -11.4432, -6.9142, -13.5165
36280.210205078125, 73.39881479177497, -3.6425, -2.2127, -1.8004, -8.0860, -6.2466, -9.5563
36316.511962890625, 73.48810224482911, 0.3102, -1.1869, 2.3254, -4.4360, -4.8777, -5.4220
36348.465087890625, 73.60209746116651, 3.6250, -0.5912, 5.9698, -1.3050, -3.8964, -1.8367
36383.655029296875, 73.67992712648031, 8.1920, -0.5244, 6.4200, 3.0899, -3.3757, -1.4546
36415.093994140625, 73.75456911831837, 8.7777, -1.1681, 6.6693, 3.5889, -3.9301, -1.1805
36451.141845703125, 73.78292915914204, 7.8077, -1.4616, 2.8808, 2.5099, -4.1843, -4.9096
36481.181884765625, 73.78581164894025, 6.1334, -1.5694, -1.0309, 0.7570, -4.4237, -8.7197
36518.2392578125, 73.76418466934066, 0.5496, -9.2532, -7.4766, -5.0262, -12.9193, -14.6627
36548.93505859375, 73.80595020403787, 0.0417, -10.5935, -10.9362, -5.5504, -14.4677, -17.9995
36582.446044921875, 73.66703506117344, -7.9203, -6.2554, -18.9500, -13.7360, -10.6385, -25.5178
36616.454833984375, 73.68769697954478, -10.2144, -1.6607, -13.8202, -15.9999, -6.3976, -20.1653
36651.322998046875, 73.76872129791428, -0.0242, 0.3658, 0.9904, -5.1410, -4.6739, -5.6871
36683.35107421875, 73.73292833464632, 3.3244, 2.6547, 1.3441, -1.8024, -2.4044, -5.3111
36718.468994140625, 73.63945168974502, 5.0857, 10.2882, 5.2753, -1.2730, 4.9888, 0.0166
36752.073974609375, 73.7960301468932, 4.0927, 9.6538, 11.4971, -2.4569, 4.2523, 6.5884
36783.23486328125, 74.08713304487175, 6.6119, 10.3715, 10.8017, 0.5725, 5.0931, 5.1595
36818.994140625, 73.8284691999552, 4.6334, 10.8389, 6.1802, -1.1996, 5.8107, 0.1086
36850.304931640625, 73.49555284891711, -2.2560, 8.8027, 1.9755, -8.2386, 4.0393, -4.1637
36886.155029296875, 73.45430353462345, -8.6932, 3.5079, -1.4887, -14.5487, -0.9306, -7.9836
36918.23583984375, 73.51374186116166, -10.7187, -4.2901, -10.8705, -16.2831, -8.1117, -17.9840
36952.947021484375, 73.31276259584858, -11.6457, -4.3861, -15.6760, -17.6619, -7.6848, -22.6828
36985.326904296875, 73.18502079995332, -12.7715, -5.6000, -8.1527, -19.1684, -8.5889, -14.9582
37019.657958984375, 72.97032560817561, -2.7998, -2.9904, 0.3455, -8.8431, -5.8568, -6.8262
37053.6181640625, 73.54915392646718, 4.3822, -0.8986, 5.5985, -1.3782, -3.7339, -1.8144
37085.540771484375, 72.85965982859005, 8.1220, 0.5101, 7.9310, 2.2854, -2.3638, 0.5930
37121.052734375, 72.87734461226431, 10.0778, 0.8582, 9.7404, 4.1258, -2.0259, 2.4998
37148.9267578125, 72.97371173063652, 10.3158, 0.6746, 9.5660, 4.4074, -2.1965, 2.2847
37189.94921875, 73.00104740409537, 10.2921, -0.9066, 6.6944, 4.6226, -3.7752, -0.7754
37217.55908203125, 73.64409509383313, 5.1591, -2.5844, -1.7571, -0.6874, -5.6623, -9.0038
37255.362060546875, 73.68728713464273, -0.7772, -9.7041, -6.9103, -6.8396, -13.1115, -13.8246
37286.4609375, 73.7273857142397, -9.1148, -12.4121, -19.8452, -15.6262, -16.1196, -26.1718
37320.01513671875, 73.43902147747617, -14.1251, -2.3805, -16.1511, -20.6513, -6.4429, -22.2400
37354.25390625, 73.36194564889948, -5.8564, -0.6662, -8.6855, -11.8030, -5.0169, -15.1569
37387.617919921875, 73.40881537134871, 1.4759, 1.7317, -2.6570, -3.9388, -2.8582, -9.4234
37421.0458984375, 73.22984884076028, 5.2156, 7.4649, 2.0685, -0.1781, 2.6508, -4.5575
37455.28173828125, 73.3507061468881, 5.3313, 10.8001, 7.5226, -0.1015, 5.8291, 1.0461
37487.6162109375, 73.07310761629945, 4.6567, 11.1850, 9.2511, -0.6038, 6.1992, 2.6451
37522.075927734375, 73.76752471834637, 4.2190, 9.7186, 9.8515, -0.7537, 4.8713, 2.9272
37553.89794921875, 73.83110971424314, 1.7190, 9.8324, 5.8987, -3.1556, 5.1670, -1.2177
37590.56005859375, 73.72098297138182, -2.9257, 8.2451, 0.9694, -7.8374, 3.7789, -6.2486
37619.075927734375, 73.6714305142455, -7.7490, -0.0352, 2.4415, -12.6441, -4.2585, -4.9322
37658.951904296875, 73.69966958363308, -9.3717, -5.4190, -6.5962, -14.7345, -8.9180, -14.0237
37683.992919921875, 73.39120319995148, -14.0357, -0.7269, -18.5204, -20.3911, -3.7469, -25.3512
37726.316162109375, 73.3534357142307, -9.5987, -3.8787, -3.8930, -16.1939, -6.5867, -10.6265
37754.272216796875, 73.5872363428182, -1.8827, -2.8240, -0.3647, -8.4792, -5.2821, -7.1922
37790.8798828125, 73.07273088982868, 3.5180, -1.5300, 2.4010, -3.1387, -3.8557, -4.4145
37818.31298828125, 73.72851810607503, 8.3609, -1.1613, 4.2342, 1.6923, -3.4276, -2.5895
37857.886962890625, 73.51895991018044, 10.8338, -2.1181, 5.5899, 4.2415, -4.4339, -1.2912
37888.803955078125, 73.59189549387419, 11.0732, -2.5317, 5.6001, 4.5807, -4.9249, -1.3490
37924.184814453125, 74.00977404079126, 8.7228, -1.5547, 3.2735, 2.3638, -4.1527, -3.7254
37956.64990234375, 74.0517929877324, 4.9664, -0.2348, -0.8574, -1.2311, -3.2676, -7.8262
37990.635986328125, 74.04303391834188, 2.4198, -2.8658, -0.9696, -3.2438, -6.3066, -8.1983
38021.48486328125, 74.13642297956822, -2.9895, -12.5319, -19.2837, -8.6099, -16.1574, -26.4558
38058.733154296875, 73.74836493873879, -17.8063, -6.4726, -15.9629, -24.3329, -10.3877, -22.1473
38089.853759765625, 73.7577687020027, -14.9732, -1.9026, -9.5750, -20.6495, -6.0377, -16.4197
38125.217041015625, 74.02961799996679, 4.0177, 1.3215, -5.2571, -0.6249, -2.9405, -12.7705
38156.64599609375, 73.86563728159749, 5.2903, 5.7770, 1.7589, 0.2726, 1.3084, -5.3843
38191.72900390625, 73.91469551017227, 2.3290, 9.0477, 8.1662, -3.0315, 4.4601, 1.3553
38221.469970703125, 74.14115936323658, 3.8350, 8.9959, 11.5730, -1.3191, 4.4296, 4.5906
38261.89013671875, 74.13210886527608, 5.5805, 8.6957, 8.7077, 0.6846, 4.2508, 1.4660
38288.636962890625, 73.9251733469083, 4.5336, 8.3263, 6.4629, -0.5586, 3.9679, -0.6957
38326.26904296875, 73.85898235915133, -0.7711, 6.9705, 2.1413, -6.0677, 2.7128, -4.9289
38358.211181640625, 73.92651286527841, -2.1662, 1.2239, 0.5291, -7.3194, -2.7785, -6.7919
38392.4609375, 73.90177338772507, -6.3450, -1.0314, -7.4093, -11.7905, -4.5406, -14.7715
38425.860107421875, 73.70694203261795, -14.2689, 0.9755, -14.4685, -20.6129, -1.8827, -21.3790
38457.14306640625, 73.73422999180366, -13.0261, -1.3592, -5.7804, -19.4656, -3.7652, -12.7743
38495.115966796875, 73.81806684894514, -6.1638, -3.4532, 2.6941, -12.4083, -5.5551, -4.5695
38524.86376953125, 73.78552455507324, 2.1960, -1.4393, 5.8615, -3.8663, -3.2557, -1.6297
38561.194091796875, 73.79610492242014, 6.5733, -1.6792, 7.0723, 0.5915, -3.2440, -0.5396
38593.42578125, 73.87018908568682, 9.1510, -2.5227, 7.9937, 3.1544, -3.9317, 0.3632
38626.641845703125, 73.9527920244667, 9.5746, -3.8775, 6.2021, 3.6299, -5.2051, -1.4835
38661.326904296875, 73.9895632163065, 8.5517, -3.7007, 1.2031, 2.5923, -5.1724, -6.4447
38691.902099609375, 74.0116365877312, 4.9199, -3.2558, -4.2701, -1.0977, -5.1980, -11.7659
38728.43212890625, 74.12278693059017, 1.3759, -8.7121, -9.4241, -4.4169, -11.2604, -16.9155
38760.18212890625, 74.08036448977062, -8.8523, -5.1374, -18.1193, -15.1522, -8.2772, -24.9474
38794.10302734375, 74.0353928734395, -14.9265, -3.1717, -12.4428, -21.2295, -6.6025, -19.1265
38827.40283203125, 73.97132650609556, -4.1106, -1.4648, -5.8175, -9.8257, -5.1273, -12.8952
38859.658935546875, 73.95247000812984, 1.7018, 0.7545, -0.3024, -3.6730, -3.0002, -7.5952
38894.75, 73.87187879180391, 4.3834, 5.1755, 5.0305, -0.9952, 1.3663, -2.2311
38927.68115234375, 73.85530186119293, 7.9405, 7.7430, 10.4373, 2.5293, 3.9055, 3.2148
38961.826904296875, 73.82289838364157, 7.7444, 7.3805, 11.6862, 2.2036, 3.5910, 4.5372
38995.028076171875, 73.79155538772422, 2.9341, 6.5369, 6.6634, -2.9501, 2.8546, -0.2640
39029.97509765625, 73.75987101221631, -1.2521, 7.0964, 2.1795, -7.3309, 3.4264, -4.5843
39061.36279296875, 73.81643434283534, -3.6681, 5.0363, 0.7419, -9.3298, 1.3428, -6.3626
39095.921142578125, 73.85878074283139, -7.6767, 0.2253, -7.9550, -13.1832, -3.2839, -15.2717
39128.298828125, 73.76712848160602, -12.1962, 2.3039, -14.5203, -18.2836, -0.8830, -21.5171
39161.97509765625, 73.76395183670441, -13.9156, 1.6873, -9.0376, -20.4139, -1.2303, -15.7778
39196.9150390625, 73.92750885711293, -4.7719, -0.9537, 1.3113, -10.9373, -3.6414, -5.8255
39226.8740234375, 73.90771669384816, 4.3408, -3.2983, 5.5927, -1.6626, -5.6192, -1.8061
39264.436767578125, 73.86536241630131, 6.7575, -3.7538, 6.8039, 0.5447, -5.6973, -0.5306
39296.14794921875, 73.93719069384895, 7.9105, -4.2859, 6.3867, 1.5965, -5.9616, -0.9275
39330.320068359375, 74.04735925712336, 8.3014, -4.9680, 4.6647, 2.0339, -6.4515, -2.7304
39363.250732421875, 74.06772906936496, 7.0850, -4.2180, 1.1741, 0.8190, -5.8074, -6.2002
39395.89599609375, 74.10940266936451, 3.5689, -2.9499, -0.4056, -2.5832, -5.0037, -7.7611
39430.989013671875, 74.19144218772664, 0.5663, -5.6143, -5.1517, -5.3138, -8.0156, -12.6236
39464.3388671875, 74.08572042446437, -8.3871, -3.9649, -21.8817, -14.9281, -6.7587, -28.6330
39497.2421875, 74.00205477548383, -13.9119, -3.2360, -11.4997, -20.5782, -6.3825, -17.9674
39530.820068359375, 74.09445022854469, -5.0531, -1.7181, -11.2024, -11.0665, -5.1682, -18.1383
39563.531005859375, 73.98348391833952, 0.5432, 0.9230, -4.1367, -5.1405, -2.8392, -11.1874
39598.445068359375, 73.869227640784, 3.0174, 6.8126, 3.2162, -2.4588, 2.6820, -3.7923
39629.9501953125, 73.88345328976389, 4.1025, 8.6438, 10.6623, -1.0309, 4.1861, 3.5949
39666.208740234375, 73.94046574690587, 5.5028, 8.2197, 12.9733, 0.5715, 3.5714, 5.8848
39697.031982421875, 73.85874759181004, 3.6628, 8.8950, 6.1325, -1.6405, 4.2166, -0.6615
39732.637939453125, 73.76684692241582, -0.9331, 7.1766, 0.8091, -6.6497, 2.3659, -5.5429
39762.992919921875, 73.81144155915283, -4.5340, 5.8511, 0.7448, -9.8818, 0.7183, -5.6759
39800.162841796875, 73.90420617140481, -3.2393, -0.7326, 0.2652, -7.9291, -6.1371, -6.4406
39829.14306640625, 73.85172720813357, -6.2539, -2.4270, -3.9043, -11.1257, -7.7412, -10.5523
39864.89501953125, 73.69819504486067, -11.3451, 0.4135, -9.8026, -16.7973, -4.4570, -16.3389
39900.411865234375, 73.73947222037569, -3.5635, -3.5387, -0.0968, -8.8725, -7.8250, -7.1404
39932.304931640625, 73.85663763262343, 0.4881, -3.7700, 0.7613, -4.8418, -7.8485, -6.3891
39966.05322265625, 73.83377793466445, 3.6726, -2.0091, 4.2163, -1.9843, -5.6337, -2.9274
39999.304931640625, 73.9341344244625, 7.4829, 0.3471, 6.4240, 1.7249, -2.9084, -0.8160
40033.31396484375, 74.09757443263145, 9.8009, -1.2920, 7.9809, 4.1728, -4.3193, 0.5424
40066.93408203125, 74.20560031834033, 7.8876, -2.9140, 4.1291, 2.4644, -5.7009, -3.5515
40101.282958984375, 74.16308831017855, 4.8893, -2.7832, -3.4835, -0.6942, -5.8680, -10.9319
40133.2861328125, 74.14285883262431, 0.1335, -4.5476, -6.9381, -5.3413, -8.2326, -14.1919
40166.419189453125, 74.23107311017759, 0.7511, -6.2562, -7.6030, -4.5349, -10.1171, -14.9051
40201.225830078125, 74.14011238364205, -6.6446, -2.4538, -18.0085, -12.5088, -6.6822, -24.6344
40234.903076171875, 73.97437555098689, -6.9451, -1.4008, -5.4774, -12.4539, -5.8315, -12.2739
40267.718017578125, 73.9906254856785, -0.3105, -1.3982, -1.2451, -5.3144, -5.8869, -8.3854
40299.552001953125, 73.91056688160211, 1.5405, 0.5441, 0.6044, -3.4031, -3.9501, -6.5743
40334.994873046875, 73.8334204571115, 1.4236, 7.2049, 5.8872, -3.6404, 2.5971, -1.1338
40367.345947265625, 73.92253948568099, 2.4431, 8.4329, 9.6275, -2.3007, 3.7330, 2.4457
40402.755859375, 74.0753752407894, 3.3534, 9.4782, 10.4634, -1.0126, 4.8019, 3.0311
40434.1279296875, 74.15100632650365, 1.1445, 10.0624, 4.4463, -3.3962, 5.5234, -2.9666
40466.910888671875, 74.01962322446387, -2.0657, 8.5449, 1.0188, -6.8226, 4.0351, -6.2754
40496.717041015625, 74.05339311833775, -3.6818, 4.9636, -0.8711, -8.3650, 0.4895, -8.2346
40532.427001953125, 73.99993223670889, -4.1677, -2.1579, -7.2511, -8.7303, -6.3834, -14.8339
40566.7568359375, 73.7653533958881, -11.5932, -1.0545, -14.6952, -17.3496, -4.6988, -21.7488
40603.5439453125, 73.77644490608603, -10.5363, -2.5986, -0.7802, -16.0817, -6.0940, -8.0741
40633.1669921875, 73.9634956326235, -4.8401, -3.8863, 1.2239, -10.0230, -7.2140, -6.4072
40671.110107421875, 73.84595151833835, 2.5302, -2.7693, 3.5827, -3.0168, -5.7715, -3.9265
40702.54296875, 73.9598833632404, 4.0736, -1.8357, 5.9820, -1.5749, -4.6627, -1.5196
40736.8662109375, 74.14954608160686, 7.9445, -1.2874, 5.7087, 2.4288, -4.0365, -1.9196
40767.64990234375, 74.26796799180802, 9.3472, -1.2429, 6.0417, 3.9702, -4.0878, -1.6502
40805.032958984375, 74.36527759996949, 7.9662, -1.5067, 7.0656, 2.8913, -4.5057, -0.7715
40835.527099609375, 74.45150333059465, 4.4412, -0.3996, -1.0795, -0.4923, -3.7350, -8.8710
40870.116943359375, 74.29829706124175, 0.8344, 0.4421, -7.4839, -4.2816, -3.6916, -14.7579
40903.509033203125, 74.53769304492774, 1.4376, -7.2024, -6.1937, -3.3779, -11.7620, -13.4180
40934.032958984375, 74.76464595919587, -6.0179, -4.6639, -16.0010, -11.1106, -9.3015, -22.9815
40973.1630859375, 74.92677635104512, -8.6223, -1.0270, -7.1805, -13.7809, -5.6427, -14.1271
41007.73095703125, 74.85123476737493, -2.1668, -0.6715, -2.2188, -6.7814, -5.1249, -9.6379
41037.713134765625, 74.21521539594524, 2.0206, 2.6979, 1.2637, -2.4790, -1.5372, -6.3512
41071.58203125, 73.90056763268753, 1.5634, 5.6253, 5.0355, -3.1316, 1.4416, -2.4894
41105.690185546875, 73.92139538778075, 0.8941, 6.9208, 9.3247, -3.5563, 2.7164, 1.6640
41136.1181640625, 73.87473272651067, 1.1380, 6.7878, 10.5466, -2.8510, 2.6227, 2.6151
41172.819091796875, 73.698691575483, 0.6761, 7.7506, 5.6358, -3.2631, 3.6413, -2.3496
41205.695068359375, 73.57402148567978, -1.1318, 7.4173, 1.2503, -5.1742, 3.2181, -6.6361
41238.844970703125, 73.55756743669913, -5.8883, 4.4524, -2.0662, -9.9753, 0.0970, -9.8442
41273.2900390625, 73.62122951833419, -5.3234, 0.3666, -4.6035, -9.2712, -3.7718, -12.5696
41305.14208984375, 73.58197731425011, -4.0205, -0.5337, -8.5473, -8.2530, -4.1454, -16.6226
41340.19287109375, 73.54434761628588, -7.9684, -1.0275, -9.6668, -13.1982, -3.9444, -17.4328
41372.91015625, 73.61538802444947, -6.2851, -2.1956, -1.2249, -11.7894, -4.5215, -9.0007
41406.196044921875, 73.77686538771937, -0.9337, -2.9962, 3.1509, -6.2318, -4.8984, -4.8792
41438.842041015625, 73.79349069384163, 3.8449, -3.6051, 5.5641, -1.4889, -5.1375, -2.5212
41473.50390625, 73.85787835915502, 6.4225, -4.7564, 5.7855, 0.8431, -6.1241, -2.1624
41507.641845703125, 73.95672869384497, 6.9757, -6.1682, 5.7700, 1.3168, -7.5369, -2.1214
41538.869873046875, 73.94474827751847, 5.1470, -5.5491, 0.0512, -0.5101, -7.1937, -7.7886
41575.072998046875, 73.83339390201174, 2.9831, -2.9658, -5.1855, -2.9073, -5.2934, -12.6725
41606.080078125, 73.79413838364557, 0.6283, -2.8706, -6.8348, -5.3428, -6.0410, -13.9386
41638.805908203125, 73.84230575507372, -3.0765, -7.8450, -11.8638, -8.8611, -11.8016, -18.7234
41674.499267578125, 73.59439404078867, -6.6718, -3.9012, -12.2686, -12.8467, -8.3751, -18.4351
41705.680908203125, 73.4216792897481, -7.3935, 1.1433, -6.8663, -13.7158, -3.5329, -12.7256
41741.79296875, 73.42080535505234, -0.1985, 2.9823, -1.2969, -6.1558, -1.6952, -7.5260
41772.919921875, 73.37570403259934, 2.9563, 3.9685, 1.2447, -2.5904, -0.7069, -5.3542
41810.85595703125, 73.34991573871518, 6.1777, 7.4434, 3.1306, 0.7931, 2.7403, -3.5819
41837.93896484375, 73.49714920811495, 8.5638, 11.6201, 4.9304, 3.1750, 6.8696, -1.7452
41877.830078125, 73.84422617956349, 6.4069, 11.2578, 8.0169, 1.1360, 6.6043, 1.1808
41906.556884765625, 74.02610059589485, 4.1476, 10.8372, 7.8452, -0.8868, 6.4374, 0.6711
41944.251220703125, 73.85147090609289, 1.1340, 10.0203, 1.1968, -3.8325, 5.9936, -6.2388
41974.81103515625, 73.69053462037392, -4.5393, 6.0217, -1.2802, -9.5598, 2.2606, -8.8181
42010.74609375, 73.6291698693593, -11.0778, -5.8388, -1.1997, -16.0702, -9.2153, -8.9358
42041.36181640625, 73.44307575506227, -12.4902, -4.2978, -9.2352, -17.5115, -6.9950, -17.2154
42076.329833984375, 73.44422868567293, -11.9630, -3.7713, -11.0248, -17.2857, -5.8891, -18.9844
42108.51025390625, 73.76570791834001, -5.4384, -5.5582, -1.7830, -10.8227, -7.1645, -9.8204
42144.908935546875, 73.78296932242041, -0.1005, -3.8804, 0.6762, -5.7983, -5.2414, -7.1884
42176.19091796875, 73.91357995099904, 4.2289, -2.9051, 4.2206, -1.9465, -4.1698, -3.2917
42210.408935546875, 74.1143354530401, 6.7216, -3.0678, 3.5494, 0.3971, -4.4275, -3.8210
42242.754150390625, 74.20341844895398, 9.2920, -4.7285, 4.8899, 3.1246, -6.3120, -2.5684
42278.34716796875, 74.13596581222045, 10.4552, -5.2586, 3.8135, 4.3573, -7.0815, -3.6473
42309.2119140625, 74.15247440820264, 6.9047, -2.7163, -3.4771, 0.4070, -4.9713, -10.4674
42342.540771484375, 74.03395694697743, 1.3910, -6.5160, -4.1327, -5.2231, -9.4418, -10.7556
42378.44384765625, 73.87871186121029, -1.3461, -12.3423, -12.8417, -7.8235, -15.9137, -19.2805
42410.10302734375, 73.50610363260805, -8.3054, -4.5661, -14.9403, -15.1963, -8.5014, -20.7022
42443.819091796875, 73.46378249790126, -9.0159, 1.9409, -10.1567, -15.6575, -2.2272, -16.0462
42477.886962890625, 73.51320191014341, -0.6940, 2.3064, -2.7032, -6.4890, -2.0167, -9.3289
42511.126220703125, 73.49809413870688, 4.1539, 6.1617, 2.0695, -1.1260, 1.7346, -4.9086
42543.91796875, 73.59769741218099, 4.8986, 8.0631, 4.6950, -0.1993, 3.6131, -2.4029
42579.483154296875, 73.74285680811715, 3.5121, 9.5578, 7.0252, -1.3859, 5.0488, -0.1754
42610.666015625, 73.88670061221259, 2.3820, 9.7747, 9.7587, -2.2951, 5.2529, 2.4205
42645.27392578125, 73.95068528976921, 0.9717, 10.0892, 6.9085, -3.6489, 5.6720, -0.5285
42679.93994140625, 73.84777203261542, -1.0414, 9.8617, 2.4994, -5.7628, 5.4649, -4.8861
42711.85693359375, 73.86281133057466, -5.0730, 3.4379, 1.2656, -9.8894, -0.7694, -6.1688
42743.22705078125, 73.86633409792404, -8.8381, -0.9872, -5.1728, -14.0228, -4.6694, -12.6381
42780.162841796875, 73.68672738770648, -12.7315, -1.6876, -11.0345, -18.6517, -4.4662, -18.3421
42812.64111328125, 73.65860638362295, -12.9342, -2.0806, -8.3666, -19.2519, -4.1191, -15.5848
42846.81494140625, 73.81324231832916, -5.9171, -2.4589, -2.8424, -12.1480, -4.1439, -10.2253
42879.758056640625, 73.88278761629472, 0.2113, -2.9474, 2.7099, -5.9940, -4.4065, -4.7423
42912.92578125, 73.97263488160814, 5.8949, -1.9183, 4.5258, -0.4718, -3.2540, -2.8126
42947.4140625, 74.13942858773645, 8.3935, -2.2234, 5.2131, 1.8854, -3.6203, -1.9885
42980.570068359375, 74.1848678367139, 9.4098, -3.7369, 6.6619, 2.9477, -5.2746, -0.5525
43015.007080078125, 74.02337834283443, 8.7081, -3.6902, 2.5294, 2.5036, -5.4522, -4.8577
43047.5751953125, 74.11142975514443, 5.5057, -4.2401, -2.4819, -0.6000, -6.5033, -9.8146
43080.050048828125, 74.31413289800214, 4.2093, -5.2200, -5.2177, -1.7110, -8.3689, -12.3735
43113.154052734375, 74.23835182045013, 1.0375, -11.2322, -15.5181, -4.9578, -14.9093, -22.3523
43144.68115234375, 73.95297842453719, -7.4796, -5.2287, -15.4053, -14.2073, -9.2593, -21.2928
43181.741943359375, 74.01439937959961, -9.9915, -0.8609, -6.2312, -16.3671, -5.1047, -12.3560
43215.68408203125, 74.01513208160563, 1.3466, 2.2481, -1.6572, -3.8982, -2.0280, -8.7548
43246.7490234375, 73.77546497956762, 4.8595, 6.6207, -0.5610, 0.0480, 2.3361, -7.9544
43281.962890625, 73.7191142448856, 1.8944, 10.5364, 6.8059, -3.1434, 6.0305, -0.2996
43313.003173828125, 73.84992981221797, 1.5669, 10.2720, 9.5632, -3.3665, 5.7126, 2.4187
43349.02001953125, 73.8927938122149, 2.2252, 9.5091, 8.6877, -2.4699, 4.9250, 1.3999
43382.441162109375, 73.70320326527668, 1.7318, 8.8493, 8.4211, -2.9527, 4.3706, 1.0612
43415.75390625, 73.55419634283194, -3.1097, 8.7610, 0.3168, -8.0583, 4.5402, -7.0226
43451.086181640625, 73.37769552648787, -8.1158, 0.7405, -3.1247, -13.1304, -2.9905, -10.6814
43481.43798828125, 73.30929550199883, -8.7847, -1.1961, -6.2233, -13.8717, -4.6531, -13.8615
43517.8759765625, 72.59068013056157, -12.1298, -1.0370, -9.7142, -17.9585, -3.7453, -17.1211
43548.8330078125, 72.63510506118756, -11.9411, -3.0633, -5.0331, -17.8989, -5.5991, -12.3982
43584.39501953125, 73.16314257953103, -2.4283, -1.4086, 0.4051, -8.4687, -3.4031, -7.0586
43614.3330078125, 73.22495906116335, 0.9058, -0.7545, 2.3969, -5.1941, -2.6413, -5.0464
43650.946044921875, 72.72398888168823, 6.5648, -0.8359, 5.0732, 0.0868, -2.5183, -2.0945
43683.2958984375, 72.83335376333459, 7.1957, -1.2587, 5.7334, 0.6810, -2.9374, -1.4018
43716.7978515625, 73.07270591017623, 9.8257, -3.2659, 5.8264, 3.5219, -4.9710, -1.4896
43751.037109375, 73.55913913464794, 7.8586, -4.6477, -0.0612, 1.6165, -6.6541, -7.3538
43784.312744140625, 73.74901170607387, 4.3287, -3.2932, -6.5926, -2.2679, -5.9827, -13.3321
43817.291015625, 73.77133513464277, 2.4337, -8.8492, -6.8801, -4.0440, -12.1527, -13.4602
43850.758056640625, 73.83989070200087, -6.6691, -9.0661, -19.7857, -13.4937, -12.9217, -25.6789
43881.652099609375, 73.66641756728733, -10.3859, -5.7569, -19.5248, -17.3429, -9.8328, -25.1068
43919.3369140625, 73.78757545301815, -6.3165, 2.5002, -9.8894, -12.1253, -2.2223, -16.2240
43950.659912109375, 73.84785720812594, 2.7263, 4.8106, 1.4625, -2.2857, -0.0729, -5.4079
43987.090087890625, 73.73764444892905, 2.9649, 9.1928, 2.2318, -2.1657, 4.1807, -4.4561
44018.409912109375, 73.66928924075613, 0.6708, 10.6938, 6.1827, -4.6645, 5.3642, -0.0863
44052.615966796875, 73.81194622852827, 1.8971, 9.3459, 10.5682, -3.1256, 3.8675, 4.1706
44084.56103515625, 73.84486525710591, 1.9411, 8.2111, 10.5626, -2.7907, 2.7412, 3.9400
44120.3837890625, 73.6620614285171, -0.1830, 8.8256, 6.0585, -4.9256, 3.3513, -0.5528
44148.87109375, 73.44668752645754, -1.3536, 9.1955, 3.8183, -6.0000, 3.7053, -2.8479
44188.448974609375, 73.46895837543897, -3.0835, 2.3885, 0.4056, -7.3120, -2.8825, -6.7012
44218.44677734375, 73.47913393462663, -4.5381, -3.2010, -6.4781, -9.0917, -8.0231, -13.7019
44252.541015625, 73.37801019584036, -10.4043, -1.5877, -12.0138, -16.0361, -5.8356, -18.8262
44287.129150390625, 73.42869355910175, -11.9437, -3.7653, -5.0567, -18.0880, -7.5326, -11.7069
44320.544921875, 73.54699335503166, -5.7967, -3.7322, -1.6304, -11.9058, -7.1088, -8.5187
44353.340087890625, 73.61564004891552, 1.4015, -2.4263, 3.9224, -4.7097, -5.3882, -3.1523
44385.494873046875, 73.74226848158396, 5.3329, -1.5748, 5.2357, -0.7615, -4.1562, -2.0007
44420.5849609375, 73.85419859587924, 7.4326, -2.0227, 5.4855, 1.3149, -4.4400, -1.7877
44454.06396484375, 73.92361340405222, 5.8115, -3.4226, 7.3092, -0.0627, -5.7328, -0.1959
44487.57080078125, 73.93705807344257, 3.6762, -3.7429, 4.8446, -1.4389, -6.0763, -3.1904
44521.375, 73.75042502036294, 4.9185, -2.4656, -2.1184, 0.2222, -5.0575, -10.3280
44551.7861328125, 73.51903026932155, 4.6486, -6.2960, 0.8833, 0.5748, -9.4525, -7.4600
44589.93408203125, 73.52540496320297, 2.4598, -7.8667, -9.0199, -1.8401, -11.2403, -17.1624
44619.8310546875, 73.38649415502489, -4.7075, -2.8730, -17.1599, -9.5791, -6.3244, -24.9398
44656.09521484375, 73.37517026931023, -3.8599, 0.8527, -11.9353, -8.5108, -2.8575, -19.7311
44687.947021484375, 73.4631838121664, 1.3205, 0.6518, -1.0051, -3.0806, -3.1229, -8.9141
44722.208984375, 73.43736130604279, 3.3064, 2.4851, 1.6882, -1.1931, -1.1633, -6.2248
44754.8828125, 73.36688508563226, 3.4035, 5.7000, 4.5585, -1.3002, 2.1129, -3.2631
44790.412109375, 73.42222136318297, 3.5616, 8.0856, 6.5445, -1.0898, 4.4267, -1.2752
44821.48291015625, 73.47488300400165, 3.7071, 8.6516, 7.6783, -0.8115, 4.9286, -0.1888
44856.078857421875, 73.4843463346151, 1.3889, 9.4709, 5.9570, -3.0462, 5.6744, -1.9225
44890.055908203125, 73.41643182848891, -1.9375, 7.8605, 4.7949, -5.9499, 4.1117, -3.3302
44922.363037109375, 73.3302156407392, -3.7269, 4.4288, 4.8007, -7.1401, 0.9313, -3.7016
44956.27978515625, 73.30054413870539, -5.4541, 2.2862, -8.6793, -8.9509, -0.6475, -17.3590
44988.8349609375, 73.22293153463042, -8.1523, -1.0662, -9.1552, -12.1820, -3.3652, -17.7951
45024.5419921875, 72.8290409061056, -8.6774, -4.1510, -7.9546, -12.9025, -5.8815, -16.6336
45056.02197265625, 72.89589469387342, -3.6041, -4.4199, -4.3675, -8.1153, -5.5698, -12.9987
45090.556884765625, 72.98941287349768, -0.3267, -3.9847, -0.1577, -5.2322, -4.6798, -8.6208
45124.078857421875, 72.9319267102428, 2.8007, -3.9805, 2.2294, -2.2206, -4.3724, -6.1851
45153.8798828125, 72.95885852249738, 6.3496, -5.6986, 4.5395, 1.5239, -6.0482, -3.9905
45193.44189453125, 73.46063417135727, 7.2839, -7.2885, 6.4949, 2.6221, -7.7696, -2.1195
45220.85205078125, 73.685806375464, 6.1334, -6.2368, 4.2437, 1.4459, -6.9795, -4.3380
45258.87890625, 73.68991595096129, 1.0903, -5.1507, -7.3634, -3.9611, -6.5872, -15.6454
45289.993896484375, 73.60958375503347, -4.9009, -9.1919, -11.6575, -10.1653, -11.6798, -19.5484
45324.785888671875, 73.50360946114624, -9.3208, -2.2266, -19.0925, -14.8402, -5.9761, -26.2792
45356.928955078125, 73.44016537950901, -8.3666, 1.6133, -11.6386, -13.7058, -2.9229, -18.5006
45391.718994140625, 73.46609111828604, -0.8862, 3.1760, -3.8546, -5.8374, -1.9950, -10.5566
45425.52294921875, 73.4906427672666, 5.4912, 5.2759, 1.5207, 0.6695, -0.2848, -4.9600
45457.31591796875, 73.50098536318859, 6.4863, 9.4388, 3.4118, 1.6004, 3.6314, -2.7988
45493.222900390625, 73.52589626931237, 6.6273, 10.8957, 6.6081, 1.8018, 4.8955, 0.5350
45525.215087890625, 73.62270808973045, 5.7294, 10.8325, 8.1192, 1.0066, 4.8019, 1.9957
45558.81201171875, 73.61901546931814, 3.9648, 12.3372, 3.6102, -0.8028, 6.2941, -2.4660
45592.012939453125, 73.62656106931755, 0.4932, 11.4437, 4.1889, -3.9578, 5.4440, -2.1642
45627.5859375, 73.61726946932413, -0.8307, 9.5540, 1.5798, -4.7523, 3.6322, -5.1821
45658.2060546875, 73.59871481625862, -1.8426, 3.0154, 3.7553, -5.7798, -2.7336, -3.1452
45692.39599609375, 73.71722602443931, -8.5786, -3.6890, -0.0868, -12.9773, -8.6170, -7.3349
45728.43212890625, 73.49751823665636, -17.0566, -3.1627, -14.4958, -22.0560, -7.0687, -21.9737
