timestamp , luminance, accX, accY , accZ, accXwithG, accYwithG, accZwithG
984.435791015625, 249.68461653061735, -1.1888, -0.9191, 0.0167, 6.7919, -3.0897, 5.2861
1018.186767578125, 30.562413355105964, -0.5342, -0.1239, 0.2471, 7.6363, -2.1732, 5.2684
1052.152099609375, 37.248718840787134, -0.5102, -2.7427, -0.1033, 7.8359, -4.6211, 4.6908
1086.39599609375, 39.96623756736133, -0.4998, -2.3971, -0.4526, 8.0870, -4.0229, 3.9964
1119.64697265625, 46.87040650611905, -0.0672, -4.0898, 0.1127, 8.8186, -5.3822, 4.0550
1152.762939453125, 59.07468527340849, 0.5380, -3.4615, 0.2813, 9.7215, -4.4013, 3.5904
1187.650146484375, 67.76362039187823, 2.3417, -2.1863, -1.4384, 11.7774, -2.8039, 1.1612
1218.529052734375, 67.36443586941273, 2.3299, -2.4538, -0.7328, 11.9981, -2.6719, 0.8947
1253.780029296875, 64.37832399999577, 3.6390, -1.0469, -0.2634, 13.4066, -0.9955, 0.6092
1287.8349609375, 75.07806408162462, 5.3858, 2.5979, -1.9060, 15.1821, 3.0370, -1.7998
1320.761962890625, 86.05124538773318, 3.3504, 0.5313, -0.1929, 13.0952, 1.5514, -0.6018
1354.5390625, 86.7931689877774, 2.7833, -0.1624, -2.8300, 12.4463, 1.3029, -3.6369
1385.8359375, 89.29562714292975, -0.0817, -2.6261, -1.2727, 9.4936, -0.7233, -2.2019
1420.778076171875, 77.43545928980765, -2.8122, -2.9411, -2.3944, 6.8085, -1.0614, -2.6767
1453.2509765625, 79.35660320820197, -1.3032, -2.9628, -3.0898, 8.3960, -1.5498, -2.7759
1488.3779296875, 76.53079817142213, -4.4245, 0.2013, -0.7546, 5.3069, 1.3277, -0.3056
1520.323974609375, 69.64422374698754, -3.0688, 1.3266, 0.8417, 6.6801, 2.3339, 1.1797
1553.14501953125, 67.50311911027252, -3.5204, 1.1812, 3.1259, 6.2302, 2.1120, 3.6063
1586.595947265625, 68.80532855512112, -1.8637, 2.0527, 3.2579, 7.8795, 2.8280, 4.0582
1620.55810546875, 73.08257735508872, -2.3385, 3.2094, 2.9433, 7.3798, 4.1155, 3.8936
1653.218994140625, 70.25841077557922, -2.9082, 2.8856, 3.7532, 6.7753, 4.1809, 4.6032
1687.200927734375, 68.26252245720443, -1.4739, 1.8405, 2.1325, 8.1520, 3.5841, 2.8202
1722.537841796875, 66.91561737147813, 2.6345, 1.2962, 3.8205, 12.1618, 3.6158, 3.9661
1751.299072265625, 65.01720453057968, 4.9050, 4.3736, 4.6529, 14.2825, 7.2354, 4.4459
1790.39697265625, 61.280672448983886, 8.9972, 2.3805, 2.3499, 18.1084, 5.8975, 1.4623
1818.41796875, 63.1646430856651, 5.7661, 2.5185, 2.0224, 14.7594, 6.2604, 0.8868
1856.1162109375, 62.622040481599164, 3.9785, 1.3951, -2.5468, 12.6381, 5.7248, -4.1071
1886.623046875, 65.25621808165072, 3.2420, 0.8100, -1.5428, 11.7904, 5.3109, -3.2271
1920.4072265625, 69.06847687348389, 1.0145, -3.0250, -2.7685, 9.3019, 1.8700, -4.6465
1955.612060546875, 69.62988735511992, -1.7446, -4.7438, -4.5609, 6.3217, 0.3922, -6.7349
1985.68994140625, 68.69448908576884, -5.1372, -9.2239, -5.0674, 2.6438, -3.9341, -7.8322
2020.755126953125, 70.16788736324452, -4.5955, -12.7480, -5.8816, 2.6921, -7.2432, -9.4534
2054.098876953125, 67.13392202453225, -3.8551, -11.3560, -8.6203, 2.9772, -6.1803, -13.3851
2085.191162109375, 67.26627616331048, -4.0377, -9.0171, -5.5069, 2.0629, -4.3407, -11.5966
2120.380859375, 69.12195469395807, -0.8759, -4.1767, -6.2175, 4.3732, -0.2749, -13.5245
2154.67822265625, 69.18189864498288, 3.4613, 3.3512, -9.7721, 8.1352, 6.0597, -17.9568
2185.934814453125, 69.1942759837153, 5.9044, 5.5337, -12.3497, 9.8629, 7.4301, -21.1193
2221.156982421875, 69.50039574699726, 6.5066, 10.9207, -7.1857, 9.7381, 11.8865, -16.3941
2253.60302734375, 70.55265336336012, 4.0901, 10.0550, -1.8439, 6.9611, 9.9150, -11.2198
2289.01513671875, 82.17021092245761, -0.0317, 3.8522, 2.8539, 2.6122, 3.0646, -6.5567
2322.548095703125, 107.85814192657253, -1.9980, 2.5204, 5.4814, 0.3168, 1.5915, -4.0028
2356.059814453125, 109.5119882939296, -2.6949, 2.3148, 8.2302, -0.3103, 1.3288, -1.2309
2384.0048828125, 106.08908573883339, -2.8879, 2.0049, 9.3453, -0.3276, 0.9827, -0.0658
2424.40576171875, 106.51349413065398, -1.5999, 2.7442, 8.9749, 0.9438, 1.6279, -0.4301
2453.252197265625, 110.60024002451298, -1.6071, 2.4456, 9.0407, 0.7875, 1.3607, -0.4070
2489.81005859375, 102.67384693064535, 2.8877, 2.2007, 2.1969, 4.8628, 1.2614, -7.3628
2521.113037109375, 85.5663196326595, 4.4802, 2.7303, -1.3957, 6.4040, 1.8218, -10.9687
2558.800048828125, 78.02550440813377, 6.5175, 3.5820, -10.2190, 8.3489, 3.2982, -19.8490
2587.076904296875, 73.59948151833737, 5.8655, 3.8199, -9.1778, 7.6752, 3.7950, -18.8160
2623.60400390625, 71.94676005720423, 3.7636, -1.5799, -0.6468, 6.4301, -1.4334, -10.0829
2656.576904296875, 71.18278041631783, 0.7717, -2.0435, 2.0615, 4.2647, -1.6554, -7.0937
2687.947998046875, 71.08517206528352, -1.1570, -1.6721, 2.9961, 2.8778, -1.0509, -5.9204
2724.934814453125, 70.17576224496678, -5.5994, -3.1503, 4.8988, -0.4280, -1.9360, -3.3445
2751.946044921875, 69.90090200824814, -6.3796, -3.9587, 5.4659, -0.9183, -2.5679, -2.5597
2791.57373046875, 69.17068006545371, -8.9959, -6.6089, 3.9840, -2.6609, -4.7932, -3.2783
2822.93017578125, 69.13768685729853, -8.5834, -7.9904, -0.6195, -1.9317, -6.1459, -7.5853
2858.8720703125, 68.64900678374396, -5.2362, -9.2133, -3.3223, 1.6052, -7.5742, -10.1546
2892.515869140625, 68.6282848408669, 1.7377, -8.9209, -10.4320, 9.0040, -7.7123, -16.9059
2923.786865234375, 68.1482962368897, 20.8001, -5.6607, -22.2089, 28.6335, -5.1612, -28.0876
2958.785888671875, 68.64606970624789, 18.7902, 3.7379, -16.0108, 26.6959, 3.4075, -21.8040
2990.60888671875, 69.06413365719807, 5.8455, 6.0990, -5.1872, 13.8213, 4.8150, -10.7468
3023.992919921875, 69.76465412246274, -2.5608, 7.9268, -0.8598, 5.7572, 6.0533, -5.7046
3060.341064453125, 70.56409589390266, -6.6868, 7.6899, 1.0815, 1.9884, 5.5165, -2.9419
3087.92919921875, 71.03726177154111, -9.4738, 8.9114, 2.2250, -0.5602, 6.6014, -1.1488
3122.7890625, 71.7593534449644, -11.3782, 9.2107, 0.7335, -2.2076, 6.8841, -1.8468
3162.20703125, 77.95133086535438, -14.4967, 6.3020, 4.5175, -5.1411, 4.3081, 2.3572
3188.947021484375, 75.59216303677334, -14.2253, 6.2931, 4.6275, -4.7941, 4.4941, 2.6309
3228.48583984375, 74.51804672647471, -3.9128, 5.1244, 3.9203, 5.6870, 4.1928, 2.1466
3255.72607421875, 73.67757109376524, -1.2100, 3.4398, 4.9146, 8.4336, 2.7803, 3.2602
3295.906005859375, 73.15903492231938, 26.7459, -0.5992, -0.9656, 36.5436, -0.2884, -1.2447
3322.671875, 72.90395967334021, 34.0021, -1.0696, -4.8516, 43.7955, -0.6158, -5.0826
3363.56298828125, 72.58311485708255, 6.0379, -0.8778, 3.7753, 15.8134, -0.4117, 3.1488
3392.31005859375, 72.0201590938199, -2.3735, -2.5035, 1.8831, 7.4234, -2.0714, 1.8066
3427.157958984375, 71.89728326536434, -4.3979, -4.4766, -3.6687, 5.3861, -3.8693, -3.3941
3459.11474609375, 71.67871107761466, -7.0574, -5.4439, -3.7218, 2.7150, -4.6259, -3.7194
3495.10888671875, 71.32255267756676, -9.5407, -6.5143, -2.1769, 0.2162, -5.6153, -2.5827
3525.531005859375, 70.99419564896832, -11.8625, -9.2121, -1.0110, -2.1075, -8.4937, -1.7133
3560.7998046875, 70.24156253884236, -10.1478, -9.5709, -1.5079, -0.3979, -9.2400, -2.5078
3594.967041015625, 70.11888922457638, -4.0880, -9.1993, -2.5588, 5.6035, -9.2880, -4.0546
3627.134033203125, 69.90679620418507, 7.7566, -6.9535, -5.0504, 17.3349, -7.8133, -6.9704
3661.59814453125, 70.46774946129433, 22.2894, -4.7707, -6.4610, 31.8255, -6.5606, -7.8858
3695.16796875, 70.48598216331752, 27.1321, -0.6237, -4.5316, 36.4960, -3.5039, -4.9708
3727.77587890625, 70.9102243020885, 10.8149, 5.5919, -4.4582, 19.8834, 1.8750, -4.8016
3762.134765625, 71.43342733062237, -1.3100, 8.7856, -1.9839, 7.5302, 4.5656, -2.4463
3795.738037109375, 71.62447347764164, -6.8133, 8.9359, -1.2304, 1.9327, 4.5001, -1.2433
3829.60205078125, 72.66564623678202, -9.0411, 9.4985, -1.8215, -0.3056, 5.0576, -1.4489
3861.2412109375, 79.46829552655075, -11.1130, 10.0436, -1.9430, -2.3357, 5.6772, -1.6881
3894.948974609375, 78.93421948570032, -12.6232, 9.9157, -0.7740, -3.7758, 5.6879, -0.9158
3928.430908203125, 73.21726066925798, -11.3502, 8.1941, 2.7380, -2.3744, 4.3103, 2.0152
3960.64306640625, 76.4858089877456, -6.7635, 7.3822, 4.1315, 2.3590, 4.0657, 2.7348
3998.385986328125, 73.59907502028257, 0.7991, 6.2763, 7.6198, 10.1005, 3.5674, 6.0980
4023.518798828125, 72.98487357540475, 25.8650, 1.8584, 2.0344, 35.4542, 0.2447, 0.7643
4065.053955078125, 72.98584654684092, 31.3821, 5.0844, -5.3437, 40.9970, 4.2389, -7.0785
4092.554931640625, 72.15957406524994, 7.1811, -2.5739, 2.1285, 16.8483, -3.1381, 0.5800
4132.948974609375, 72.11962954279737, -1.2082, -6.1146, -2.6103, 8.5804, -6.1880, -3.2003
4159.10791015625, 71.00911610620226, -2.0184, -8.0611, -8.4227, 7.7774, -7.6465, -8.6236
4201.34814453125, 70.95808284087748, -7.4015, -8.7210, -6.0616, 2.3762, -8.0973, -6.4826
4226.855224609375, 70.39022658782297, -10.9223, -10.5953, -1.6094, -1.1480, -10.0018, -2.1394
4265.057861328125, 70.2670512082432, -10.6140, -10.8303, -1.9439, -0.8396, -10.5556, -2.6897
4295.820068359375, 70.28370601640721, -9.6966, -9.8224, -0.6583, 0.0404, -9.9413, -1.8190
4329.8701171875, 70.29707211436116, -0.6015, -8.1586, -3.0471, 9.0148, -8.8029, -4.8589
4366.097900390625, 70.28265141232339, 6.2876, -7.7915, -4.4139, 15.7802, -9.2686, -6.3835
4396.5361328125, 70.68790626945531, 22.8235, -9.0659, -5.2844, 32.2846, -11.4471, -6.2779
4429.44189453125, 70.74988582043777, 28.7940, 2.3438, -3.8598, 37.9102, -1.2538, -4.2101
4466.1611328125, 73.32526433471631, 10.2837, 10.1492, -2.5278, 19.0420, 5.8013, -3.2748
4496.5380859375, 73.38510813880552, -3.1005, 13.0027, -1.5042, 5.4821, 8.2962, -2.1029
4532.3818359375, 72.51020806535104, -7.6786, 12.6572, -2.6867, 0.8624, 7.8471, -2.3944
4565.885009765625, 79.96858775512045, -9.3735, 12.6592, -2.8942, -0.7025, 8.1193, -2.2829
4599.84814453125, 96.61295875103889, -11.9519, 10.6081, -1.6004, -3.0906, 6.4217, -1.2508
4631.52587890625, 89.53983464493928, -12.3803, 8.5221, -0.0228, -3.3220, 4.7649, 0.0043
4664.54296875, 81.18164039188679, -10.4219, 5.5441, 2.3380, -1.2043, 2.2084, 2.0577
4696.81787109375, 77.1859001877597, -6.4847, 3.7479, 5.8314, 2.8575, 0.7991, 5.3856
4734.830078125, 74.12908868574831, 13.3945, -0.0410, 4.0392, 22.9997, -2.0182, 4.0619
4763.455078125, 73.71831797543905, 38.4973, -0.4416, -3.6145, 48.2019, -1.8311, -3.3691
4799.61279296875, 73.49354694697051, 22.7514, -2.0652, -0.5046, 32.4679, -3.3905, -0.4486
4832.2919921875, 71.96920586932332, 0.1459, -3.0781, 5.0228, 9.8269, -4.5499, 5.5544
4864.952880859375, 72.6673198202899, -5.7095, -4.2096, 0.7906, 3.9626, -5.4664, 1.8112
4901.984130859375, 72.89514697149514, -7.7228, -5.4037, -3.9411, 2.0150, -6.2807, -3.1820
4932.39111328125, 71.78338444087406, -10.1950, -5.5143, -3.6388, -0.4143, -6.2133, -3.4982
4965.992919921875, 71.66009146126213, -11.3909, -6.9069, -2.4905, -1.6180, -7.6812, -2.7376
4999.425048828125, 71.43903874282968, -10.9761, -7.3310, -2.9918, -1.2462, -8.4657, -3.4515
5034.4140625, 70.95420174693122, -6.7002, -7.9464, -1.9277, 2.9583, -9.4827, -2.6505
5064.614990234375, 70.43866498781863, 2.4396, -10.6112, -3.5484, 11.9089, -12.8628, -4.7452
5100.93603515625, 70.8022875837226, 16.4966, -8.5764, -5.4736, 25.8101, -11.3759, -6.7350
5132.159912109375, 70.6592139674236, 28.8083, -2.4307, -8.7067, 37.9056, -6.0162, -9.4504
5164.777099609375, 71.10017601643852, 16.3288, 6.7401, -4.7993, 25.0374, 2.2405, -5.0925
5201.701904296875, 71.49597036745776, -0.0920, 8.3553, -0.9600, 8.3671, 3.3942, -0.9439
5231.52001953125, 74.3878624408306, -4.9532, 8.9513, -1.3178, 3.3829, 3.8182, -0.7419
5266.966064453125, 95.9386828244643, -7.3042, 10.7264, -2.6582, 1.0060, 5.6282, -1.6004
5301.4072265625, 104.11284570615972, -12.2734, 9.9579, -1.3895, -3.8617, 4.9900, -0.5327
5330.321044921875, 97.91314520817221, -13.1843, 9.8033, 0.5963, -4.6422, 5.0182, 1.1501
5367.8759765625, 102.92686270200021, -10.8799, 9.1975, 1.0320, -2.1623, 4.7100, 1.2192
5402.10986328125, 95.78371183672179, -6.0321, 6.9332, 3.9767, 2.8971, 2.9016, 3.5458
5433.6279296875, 78.06326549384548, 3.6970, 3.5914, 7.5586, 12.8419, 0.0859, 7.0562
5465.845947265625, 75.13548817955773, 21.6514, 1.1508, 2.7447, 31.0546, -1.6331, 2.7276
5499.570068359375, 74.32102285711937, 26.8745, -1.3022, -3.0748, 36.4215, -3.5433, -3.1294
5532.185791015625, 73.32272730612682, 7.9395, -2.2404, 1.9460, 17.5312, -4.2816, 1.8907
5566.876953125, 73.02008968974278, -2.9031, -5.3723, 2.6401, 6.7460, -7.0987, 2.9314
5598.630859375, 72.26393547749842, -7.5547, -5.5034, -3.7998, 2.1614, -6.7838, -3.4408
5632.362060546875, 71.55269530624001, -10.0893, -6.1328, -6.5377, -0.3289, -7.0837, -6.5203
5667.01025390625, 71.03083412236342, -12.0915, -6.1575, -5.0385, -2.3279, -7.0011, -5.4010
5700.1650390625, 70.22107422862116, -12.3292, -8.8737, -2.8403, -2.5995, -9.8836, -3.5350
5731.443115234375, 69.86781709396182, -8.3425, -9.4899, -1.7617, 1.3036, -10.7197, -3.0308
5769.23486328125, 69.30028814694855, 0.6658, -10.6258, -4.7134, 10.1432, -12.2721, -6.6213
5798.993896484375, 69.51589804898724, 20.5334, -8.4382, -8.2816, 29.9326, -10.6831, -9.9508
5834.677978515625, 69.35082720824198, 31.4215, -1.4893, -7.8105, 40.7053, -4.5885, -8.4241
5867.337158203125, 70.03578444898824, 18.9207, 6.4384, -2.6130, 27.8356, 2.3589, -2.3813
5901.347900390625, 71.13082092260022, 0.0800, 9.2210, -0.9461, 8.7165, 4.5970, -0.5001
5931.567138671875, 71.64054932257949, -6.3355, 9.1115, -0.3501, 2.1858, 4.3004, 0.2915
5967.099853515625, 72.57172032656653, -9.0296, 9.4823, -0.8159, -0.5496, 4.6606, 0.1896
6001.27490234375, 74.46763266126726, -10.4392, 10.6572, -2.3020, -1.9276, 5.8971, -1.2697
6032.213134765625, 74.85822151027456, -12.7395, 10.0157, -0.2392, -4.1346, 5.3645, 0.4627
6066.304931640625, 74.31727357547489, -11.6268, 9.5268, 1.7784, -2.8509, 5.1525, 1.9155
6100.634033203125, 73.48398899579226, -0.2611, 5.1992, 3.8941, 8.7508, 1.3399, 3.6450
6132.385986328125, 73.2668875998879, 10.8363, 3.2508, 5.0956, 19.9652, -0.3114, 5.4745
6165.171875, 73.2494283590735, 22.5488, 0.5637, 2.9948, 31.7989, -2.5338, 4.0006
6199.533935546875, 72.5477094121915, 22.3706, 4.5440, -3.0775, 31.8032, 1.9601, -2.3563
6233.758056640625, 72.01905071838233, 3.6837, -2.9618, 2.9552, 13.1473, -5.1767, 4.2609
6265.284912109375, 71.69758127354288, -5.2635, -8.0146, -0.0217, 4.2136, -9.6977, 1.8551
6301.4638671875, 70.853651167432, -6.1624, -5.8055, -8.5919, 3.4378, -6.8485, -6.8832
6332.1689453125, 71.18910265308533, -7.8982, -4.9866, -8.1418, 1.8402, -5.6538, -7.1992
6368.884033203125, 70.92634437551031, -10.2591, -6.9163, -3.8178, -0.4711, -7.4518, -3.5380
6399.39111328125, 70.0503728980374, -10.6474, -8.3301, 0.6519, -0.8703, -9.0513, 0.4085
6434.2890625, 69.87046019599512, -10.5424, -6.6927, 0.5565, -0.8000, -7.6354, -0.0485
6466.576904296875, 69.8179764490458, -8.5955, -6.4304, -1.7033, 1.1166, -7.4909, -2.5530
6498.64208984375, 70.6682346612521, 3.4863, -7.9965, -4.9532, 13.1659, -9.1759, -5.9952
6534.78515625, 70.21522692253079, 22.1113, -6.6147, -2.2563, 31.8498, -7.7324, -2.5446
6566.017822265625, 70.43904762454686, 34.2706, -1.3892, -7.1037, 43.8826, -3.1524, -6.2845
6600.057861328125, 70.85717676740757, 15.4352, 7.3688, -5.3197, 24.9295, 4.9169, -5.1900
6633.39892578125, 70.83745852249622, -1.7044, 7.5257, 1.1094, 7.6074, 4.5243, 0.4368
6664.48193359375, 71.77309767352178, -8.9043, 7.7218, 1.4241, 0.2575, 4.2458, 1.0371
6701.284912109375, 71.91156030210847, -11.3507, 9.7049, -1.8675, -2.3445, 5.8276, -1.7044
6732.05322265625, 71.99573751847174, -14.1963, 10.0063, -1.3420, -5.2304, 6.0395, -1.1218
6765.7900390625, 71.94068336336055, -14.3143, 9.0369, 0.8026, -5.2903, 5.1987, 0.8755
6798.80419921875, 72.32535059600016, -10.7634, 6.2913, 2.7563, -1.6804, 2.5940, 2.7360
6833.93798828125, 72.9260584244167, -3.4596, 5.3670, 5.6911, 5.7298, 1.9429, 5.6614
6866.0859375, 72.93688503666489, 13.3659, 2.0155, 5.6390, 22.7973, -0.6369, 6.0692
6900.423828125, 72.61296380401865, 31.8549, 2.3905, -2.8410, 41.3360, 0.0226, -2.0215
6931.59521484375, 72.47713783670125, 10.2632, -2.0689, 3.5772, 19.7980, -4.3090, 4.0674
6966.596923828125, 72.06525862037037, -3.4175, -4.3160, 5.2055, 6.1446, -6.4139, 5.7851
6999.87890625, 71.65820419597527, -9.3086, -2.5793, -2.1074, 0.3237, -4.2454, -1.3241
7033.294921875, 71.22357206528879, -9.4133, -3.6575, -5.8469, 0.3166, -4.5997, -5.0652
7065.64013671875, 70.15325111026532, -8.1608, -6.6585, -5.8459, 1.6131, -7.1564, -5.2192
7100.966064453125, 70.7294416163766, -11.6057, -12.3042, -6.6622, -1.8118, -12.5942, -6.2537
7133.215087890625, 69.8142513470193, -4.0616, -12.6068, -4.2932, 5.7329, -13.0557, -4.1029
7167.47998046875, 69.69300031843771, 6.2808, -13.0892, -4.8440, 16.0208, -14.2296, -4.8981
7199.5390625, 69.19373773064268, 17.0417, -4.7169, 0.1997, 26.6123, -6.8547, 0.2619
7233.448974609375, 69.79558139600083, 28.4493, -6.3285, 1.5122, 37.5469, -9.6606, 3.0294
7265.13427734375, 74.52318416332918, 22.4149, 1.3896, 1.5864, 30.9454, -2.9486, 3.7267
7302.19482421875, 115.77452679999023, 2.9141, 7.5033, -2.6279, 11.1909, 2.4476, -1.1772
7334.09814453125, 81.9323181551058, -4.2298, 12.6954, -4.4275, 3.8424, 7.2200, -3.4126
7365.094970703125, 72.60130759995096, -9.0344, 16.5318, -6.0212, -0.9506, 11.1238, -4.7654
7401.271240234375, 83.13199191023205, -12.7436, 11.6935, -2.3691, -4.4151, 6.7953, -0.6916
7434.1318359375, 94.56965821220084, -11.6711, 11.7329, -2.9286, -3.0634, 7.2936, -1.3889
7466.805908203125, 89.67584817956937, -12.1926, 10.8228, -2.5970, -3.2302, 6.9288, -1.7710
7499.96875, 78.07089963266576, -6.8807, 9.2999, 2.5517, 2.4368, 6.2438, 2.6725
7530.587890625, 73.90204022045097, 3.3391, 5.3920, 5.2203, 12.9556, 3.4788, 5.4027
7566.443115234375, 73.2056349142262, 27.1967, -0.3538, 3.3658, 36.9168, -1.3180, 4.2382
7598.490966796875, 72.91799889793396, 27.2587, -1.5105, 0.0417, 36.9850, -2.1292, 1.1310
7634.048095703125, 72.93338625303022, 6.9423, -4.1828, 6.0069, 16.7037, -4.6035, 6.8479
7666.672119140625, 72.0917249305745, -2.1619, -4.5980, 1.7172, 7.5995, -4.7450, 2.6463
7700.970947265625, 71.65034628577592, -5.2756, -4.0472, -3.0047, 4.4875, -3.9485, -2.0864
7732.910888671875, 71.05924506935405, -8.5085, -5.8437, -5.0570, 1.2585, -5.4537, -4.2666
7767.73388671875, 70.89682100410994, -10.3385, -11.4466, -3.3057, -0.5586, -11.0446, -2.7044
7799.319091796875, 70.37452018778988, -11.7259, -10.9147, -2.8658, -1.9243, -10.7733, -2.5815
7833.35498046875, 69.36869969804269, -10.0734, -9.6865, -3.9607, -0.2716, -9.9301, -4.1503
7866.6689453125, 69.06375221238756, -0.1014, -11.5309, -3.3643, 9.6708, -12.2869, -3.6859
7898.256103515625, 68.84010342047367, 19.1972, -8.0736, -6.9433, 28.8512, -9.7975, -6.9281
7933.7080078125, 68.86338019598438, 32.5026, -4.8558, -5.4904, 41.8544, -7.6885, -4.6597
7965.76611328125, 69.03033613059233, 24.3990, 6.5092, -1.1239, 33.2058, 2.5467, 0.5819
7998.9599609375, 69.80862728163767, 3.2248, 9.4797, -2.6841, 11.5212, 4.7493, -0.4562
8034.69677734375, 69.81616714289707, -6.0689, 13.2028, -5.7745, 1.9547, 8.3341, -2.9308
8066.2080078125, 71.03535432664978, -12.4727, 14.6086, -7.9168, -4.4450, 10.2318, -4.3714
8098.737060546875, 74.03730531435313, -12.5956, 12.4370, -7.1182, -4.4058, 8.6420, -3.2847
8135.10693359375, 74.21174234291978, -13.4496, 10.8222, -5.4725, -4.9168, 7.6109, -1.8601
8165.775146484375, 72.41524211435835, -10.1828, 8.8478, -2.7999, -1.1425, 6.3041, 0.0238
8199.989990234375, 72.90428683259171, -5.1137, 6.4823, 0.4732, 4.3347, 4.6320, 2.3370
8233.60498046875, 72.15160269383723, 4.5133, 4.1011, 4.1312, 14.1783, 3.0646, 5.4287
8265.6201171875, 71.82254162451636, 21.7013, 0.7271, 4.8050, 31.3998, 0.3898, 6.2177
8298.10205078125, 71.64585661229759, 21.7929, 1.0197, 2.2545, 31.5231, 1.1413, 3.4704
8333.613037109375, 70.87859733880798, 14.8903, 0.2187, -1.1604, 24.6622, 1.0244, -0.9845
8367.4072265625, 70.80479562449575, 3.7267, -8.8275, 2.2645, 13.4578, -7.7812, 1.6471
8399.095947265625, 70.02397507762825, -3.1112, -8.8091, 0.0936, 6.5633, -7.8178, -1.1687
8435.878173828125, 70.57467770613366, -8.5528, -9.1732, 1.7505, 1.0153, -8.2545, -0.1930
8464.556884765625, 69.7966214939558, -10.6308, -7.4483, 1.0349, -1.0434, -6.7681, -0.9119
8502.091064453125, 69.1517677470855, -10.3876, -8.6755, -0.1829, -0.7126, -8.4409, -1.7669
8532.13818359375, 68.86046666129158, -7.7373, -7.1529, -1.1195, 1.9766, -7.5142, -2.4160
8565.97412109375, 68.40968872668039, 0.2768, -7.0362, -2.8501, 9.9325, -8.2031, -4.1058
8600.343017578125, 68.83567778781321, 7.1366, -3.9194, -7.2058, 16.6532, -5.8083, -8.6333
8630.819091796875, 69.15673913475867, 21.1981, -6.1733, -3.1772, 30.7011, -8.4696, -3.9450
8669.27294921875, 69.50081415504462, 20.4782, 2.9086, -7.1387, 29.7182, -0.3328, -6.6037
8698.790771484375, 100.9026497469776, 5.7840, 7.2207, -6.0493, 14.8716, 3.5388, -5.8734
8734.8701171875, 82.91376785306598, -5.8854, 7.9127, -1.2022, 3.1134, 4.0262, -1.4989
8765.68212890625, 70.5534472163768, -8.0946, 8.0672, -2.9999, 0.9119, 4.1991, -2.6971
8799.572998046875, 72.99012069395472, -8.6680, 8.5889, -3.3008, 0.3745, 4.8746, -2.5217
8834.406005859375, 73.35262916725827, -10.2894, 8.0454, -2.8149, -1.1975, 4.4921, -1.8757
8867.034912109375, 72.52696095504656, -11.2363, 8.6865, -2.1591, -2.0539, 5.2895, -1.5981
8899.7900390625, 72.56205424480652, -8.9717, 7.8120, -0.4701, 0.3832, 4.9145, -0.9801
8934.5400390625, 72.14224483263915, -1.9628, 4.9300, 5.4257, 7.4856, 2.5786, 4.2558
8967.787109375, 71.93238925720601, 16.2253, -0.1197, 1.3507, 25.8637, -1.7069, 0.4826
8999.431884765625, 72.04115569804081, 27.8456, 3.0483, -2.7434, 37.5884, 2.1564, -3.4165
9033.445068359375, 71.8178603837322, 16.5886, 0.1014, 0.7154, 26.3403, -0.5568, -0.0865
9064.55908203125, 71.70603708576974, -0.5350, -5.2660, 3.9147, 9.2181, -5.7778, 3.0282
9102.721923828125, 71.52211426943309, -6.4011, -4.3192, 0.7829, 3.3546, -4.6023, -0.1743
9134.02392578125, 71.06521239997507, -8.0654, -5.9982, -1.5244, 1.6749, -6.1093, -2.6582
9168.4169921875, 71.02040630201994, -8.5740, -6.1219, -0.3247, 1.1399, -6.1501, -1.6698
9198.319091796875, 70.10581669394288, -9.3763, -7.0079, -0.3041, 0.3243, -7.2815, -1.7163
9231.474853515625, 69.72163400008436, -10.0837, -6.9374, -0.8098, -0.4256, -7.6194, -2.3674
9269.7470703125, 69.68687781229707, -2.8438, -7.5066, -0.9372, 6.7289, -8.6924, -2.7054
9298.47900390625, 69.78182436740315, 6.4398, -7.2947, -5.9874, 15.7977, -9.3464, -8.0828
9335.616943359375, 69.9642713307602, 13.2212, -6.4007, -2.3057, 22.5437, -9.0372, -3.8258
9365.671875, 70.40972764083325, 23.8535, -3.6623, -5.5766, 32.9833, -7.2425, -5.5694
9401.720947265625, 88.71361229387283, 15.7115, 5.6813, -7.6990, 24.5567, 1.4468, -7.6610
9434.279052734375, 103.07452308570187, 1.2460, 8.4978, -3.7770, 9.9469, 3.9780, -3.9667
9468.578125, 96.1637926857049, -7.8141, 7.7118, -0.6749, 0.8513, 3.1413, -0.2363
9501.899169921875, 99.57958446527475, -7.6685, 7.3699, -1.8945, 1.0171, 2.9631, -0.7492
9535.43212890625, 102.39766951028368, -8.2838, 7.5113, -3.1926, 0.4377, 3.1575, -2.1204
9569.1708984375, 94.08152951836279, -10.7987, 9.6560, -0.9665, -2.0451, 5.2830, -0.3174
9600.966064453125, 79.62677136331007, -11.2533, 9.0021, 1.0726, -2.4569, 4.6828, 1.4431
9633.85888671875, 83.0736432898547, -6.4262, 8.1876, 2.2235, 2.5203, 4.1729, 2.3321
9667.76904296875, 81.96098931433096, 10.3291, 1.8691, 5.4432, 19.4993, -1.6034, 5.5843
9700.510986328125, 94.5917041550651, 23.3621, -6.7288, 3.6353, 32.6360, -9.8812, 4.1123
9734.909912109375, 88.49971477546953, 18.7689, 3.2907, -1.1260, 28.0741, 0.2155, -0.7708
9768.591064453125, 73.661415142744, -0.4249, -0.3119, 3.9205, 8.9887, -3.0162, 4.4103
9800.533203125, 73.63036039990654, -4.2358, -4.2888, 1.6080, 5.2877, -6.3593, 2.6966
9835.526123046875, 72.78902602445598, -2.1162, -4.2061, -5.8189, 7.4933, -5.8029, -4.6880
9866.091064453125, 72.56505324894614, -7.4152, -5.1722, -4.8701, 2.3103, -6.3511, -4.4281
9901.2158203125, 71.7221914286188, -11.4073, -7.3962, -0.4708, -1.6499, -8.3507, -0.2405
9933.85205078125, 71.34815336329822, -8.7001, -9.3817, -2.4139, 1.0407, -10.3542, -1.8298
9967.176025390625, 71.07374922447217, -4.5571, -9.5588, -1.4248, 5.1372, -10.8734, -0.7453
9999.8291015625, 70.16341763280201, -1.5592, -9.6928, 0.1748, 7.9679, -11.6520, 1.4266
10035.693115234375, 70.8451347184297, 11.6032, -6.0130, -2.2820, 20.7517, -8.5449, 0.1805
10063.423095703125, 71.45743734706808, 20.9918, -5.5339, 4.7617, 29.5304, -8.6939, 8.4056
10098.3359375, 104.58839417141041, 14.9762, 1.7332, 4.2875, 22.6454, -2.1018, 9.0463
10133.888916015625, 119.79931598360733, 4.2893, 6.5825, -2.4541, 11.4747, 2.3607, 2.7147
10169.350830078125, 114.7814354530178, -0.6558, 7.8823, -4.0162, 6.3087, 3.5223, 1.3369
10200.64599609375, 107.60423080818434, -4.1439, 9.6528, -6.4205, 2.6243, 5.4796, -0.6807
10235.236083984375, 117.5721271591637, -5.8720, 7.7941, -7.4431, 1.0608, 3.8934, -1.7080
10268.7080078125, 120.90206119996746, -8.3048, 7.2062, -5.7775, -1.0645, 3.2994, -0.4404
10301.38916015625, 119.49580098767967, -6.3424, 7.3457, -5.7067, 1.5489, 3.6208, -1.2321
10334.60302734375, 129.04662699590878, -2.9411, 3.2867, 0.4668, 5.6017, -0.1938, 3.7951
10368.961181640625, 117.10997724079351, 1.8972, 0.7589, 3.3529, 10.8724, -2.4316, 5.6846
10401.429931640625, 91.4257665632888, 11.5228, -2.8018, 4.5956, 20.8155, -5.3473, 6.4220
10432.44580078125, 75.16863951015212, 14.3792, -1.2449, 3.3433, 23.7538, -3.4496, 5.1947
10467.853759765625, 73.97111933875347, 3.7737, -1.0629, 3.0712, 13.0632, -3.1346, 5.4339
10502.547119140625, 75.29912057955978, -2.4849, -2.4056, 1.4359, 6.6064, -4.3123, 4.5800
10533.10986328125, 81.23394734699754, -3.5579, -2.1866, -3.1698, 5.4202, -3.6597, 0.4901
10568.98291015625, 75.4461732735221, -2.2426, -4.0739, -3.7813, 6.7632, -5.1552, -0.0534
10601.909912109375, 76.22424977963634, -4.1422, -6.1099, -3.9941, 5.0242, -6.9655, -0.6156
10634.27294921875, 73.24951964904953, -7.8802, -7.3570, -3.0286, 1.3548, -8.2866, 0.1368
10669.02197265625, 71.83709992659753, -5.0992, -5.3605, -4.2935, 4.0868, -6.6424, -1.1084
10697.902099609375, 72.37011711026614, -1.2902, -7.0560, -2.0119, 7.8334, -8.7867, 1.1401
10735.93310546875, 70.97739802452338, 15.1379, -6.7326, 4.4146, 23.9384, -8.8493, 8.1883
10765.5849609375, 75.29634501233743, 20.0873, -2.5255, 6.9331, 28.3915, -5.1445, 11.4443
10799.723876953125, 104.51682601631892, 10.9737, 2.7415, 5.9016, 18.8397, -0.4259, 10.8275
10835.472900390625, 89.59059786942588, 0.2873, 5.4422, -1.0000, 7.9595, 2.0104, 4.0528
10866.880126953125, 74.8948340898945, -3.1409, 5.7336, -3.7312, 4.3848, 2.3129, 1.5446
10901.88916015625, 74.72201031834766, -4.9197, 6.9067, -6.9461, 2.5331, 3.6975, -1.4391
10933.2080078125, 74.48530602441846, -7.2065, 6.8389, -7.2230, 0.3605, 3.8196, -1.7645
10968.450927734375, 74.22925514292832, -9.3930, 7.1374, -7.1143, -1.6521, 4.2045, -1.8563
11001.219970703125, 74.82866989394648, -8.4148, 7.1831, -6.6033, -0.3374, 4.4204, -1.7768
11034.631103515625, 76.06117612247374, -3.4223, 6.1081, -0.6639, 5.0542, 3.6197, 3.5937
11068.02392578125, 77.40998395916569, 0.9251, 5.8954, 4.0011, 9.6845, 3.8431, 7.9037
11101.48193359375, 74.60643161638984, 15.5887, 1.8772, 4.6530, 24.6311, 0.6463, 8.2432
11132.76904296875, 71.95340069382344, 17.9848, -1.3629, 8.2058, 27.1526, -2.1237, 11.6032
11167.781005859375, 71.5514821143716, 6.9145, -1.5028, 6.2250, 16.0675, -2.0955, 9.6952
11199.81298828125, 71.40419167347751, -0.8255, -3.5039, 4.5885, 8.2373, -3.8452, 8.3196
11231.345947265625, 70.82140571432785, -4.2160, -4.0393, -2.8683, 4.8535, -4.0579, 0.8619
11270.64794921875, 70.71930866122959, -6.2574, -5.1185, -6.8138, 2.9143, -4.7561, -3.3615
11301.228759765625, 70.23682582042332, -7.7913, -7.7382, -6.9175, 1.4868, -6.9813, -3.8330
11334.9541015625, 69.76165768169635, -6.8626, -12.2102, -6.4079, 2.4753, -11.4783, -3.5030
11367.779052734375, 69.04484240015177, -4.2227, -9.9876, -6.1863, 5.2547, -9.6159, -3.6940
11403.159912109375, 68.48751001637149, 0.3801, -10.4883, -2.3531, 9.9208, -10.6448, -0.0904
11433.455078125, 68.67159546126794, 12.9876, -5.1875, -0.9989, 22.4181, -6.2186, 1.4855
11467.065185546875, 68.89040280821426, 25.7765, -2.1293, 5.6106, 34.9669, -3.8544, 8.5656
11500.841064453125, 70.23581727351186, 20.4837, 4.2673, 4.9555, 29.2368, 1.5266, 8.4258
11535.01806640625, 75.741312906169, 4.5397, 8.8052, -1.6177, 13.0622, 5.4622, 1.8985
11567.47216796875, 72.36384105314211, -2.0158, 7.9834, -3.2269, 6.4052, 4.4300, 0.3270
11598.22900390625, 73.05634857151603, -5.7576, 8.2509, -4.4937, 2.6098, 4.7722, -0.7446
11636.60302734375, 82.49035711024665, -7.2979, 8.7235, -6.0395, 1.1067, 5.4992, -2.1488
11668.166015625, 95.70969200818476, -10.2816, 7.7510, -5.7877, -1.7424, 4.6474, -2.0972
11702.583251953125, 91.37146678369349, -11.7478, 8.0098, -4.2167, -3.0152, 5.0833, -0.8480
11732.195068359375, 87.31015711022489, -7.4573, 6.2994, -1.9215, 1.4986, 3.5624, 0.9890
11769.491943359375, 75.69386331427326, -1.5244, 4.9127, 3.2054, 7.5566, 2.2652, 5.7934
11798.652099609375, 72.69906294691336, 9.5886, 3.4973, 5.6111, 18.7054, 1.2439, 8.4352
11834.889892578125, 72.63402558364695, 24.2818, -2.1661, 4.7426, 33.4932, -4.1113, 7.4877
11865.305908203125, 71.48414720012003, 11.4490, -3.1242, 6.5101, 20.7576, -4.9018, 9.0320
11903.510986328125, 71.16492457140168, 1.5431, -4.9335, 7.1009, 10.7298, -6.6502, 10.0721
11934.797119140625, 70.88020509390675, -3.7141, -3.2303, -1.1155, 5.3527, -4.6884, 2.3251
11968.610107421875, 70.08936933070251, -5.0165, -3.0713, -4.0328, 4.1786, -3.9711, -0.7447
11999.335205078125, 69.93197004907185, -6.5009, -4.6575, -5.1691, 2.8708, -5.1945, -2.3314
12035.691162109375, 70.35267210607977, -9.9798, -7.5954, -5.0523, -0.4749, -8.0541, -2.6821
12065.93212890625, 69.5478355185156, -10.1010, -7.6853, -5.9038, -0.5151, -8.3486, -3.9441
12102.4248046875, 69.55890366545626, -6.1237, -8.3592, -4.8933, 3.5343, -9.2714, -3.4578
12133.248046875, 69.49354396750438, 2.7744, -10.3574, -3.1110, 12.4048, -11.8754, -2.0524
12168.092041015625, 68.91009626947036, 14.0600, -5.7207, -1.5065, 23.5649, -7.8624, -0.3931
12199.7431640625, 69.57324039190665, 22.6522, -5.4566, 1.7658, 31.8537, -8.4514, 3.3580
12235.10498046875, 69.10102711028249, 13.0093, 4.8975, 2.2801, 21.7636, 0.9872, 4.3399
12268.60595703125, 69.66203883267814, 4.9260, 7.8526, -1.0912, 13.4427, 3.4967, 1.0680
12299.875, 70.65123283272898, -1.3469, 8.4717, -1.9461, 7.1392, 4.0450, 0.1896
12334.8349609375, 70.69002692245024, -4.2087, 9.5270, -2.6613, 4.2502, 5.1424, -0.3388
12366.89501953125, 71.06798084909516, -6.1757, 10.0904, -4.1235, 2.3593, 5.7995, -1.9070
12403.174072265625, 71.36153698787564, -9.4309, 9.8598, -2.9893, -0.7666, 5.7129, -1.0136
12433.026123046875, 71.63799320825517, -10.0477, 8.0022, -1.1193, -1.1372, 4.2341, 0.4859
12466.998779296875, 71.7026372408937, -7.7106, 7.7581, -0.1484, 1.3354, 4.2319, 1.2324
12501.512939453125, 71.64580949392824, -0.8650, 4.2807, 4.7273, 8.3523, 1.1462, 5.9047
12534.623046875, 71.54458108577518, 17.4477, -3.5638, 3.7775, 26.7284, -6.3562, 5.2746
12566.748046875, 71.33180562451221, 21.4316, -3.5880, 1.4804, 30.8361, -6.1547, 2.5467
12601.26513671875, 70.89737488166936, 9.9153, -5.1968, 3.5030, 19.3689, -7.6207, 4.4640
12634.682861328125, 70.20846635106159, 1.6608, -3.5692, 0.4322, 11.0639, -5.9131, 1.9348
12667.98193359375, 69.80941552660634, -1.6351, -3.8187, -2.4145, 7.7918, -5.9499, -0.7524
12700.488037109375, 69.14970066138024, -6.1922, -2.5479, -5.7185, 3.2820, -4.4930, -4.0980
12733.830078125, 68.9043940246452, -8.9802, -4.4930, -7.0489, 0.5403, -6.2412, -5.4760
12767.988037109375, 68.9073495021991, -10.1617, -7.1918, -6.8609, -0.6463, -9.0211, -5.3507
12799.864990234375, 68.6593461878247, -10.4748, -7.6980, -7.0997, -0.9870, -9.7899, -5.7672
12835.547119140625, 68.32422991033319, -1.5503, -8.2382, -5.9124, 7.9024, -10.6831, -4.9952
12865.759033203125, 68.62244011445284, 5.6205, -9.2481, -4.8628, 14.8996, -12.3816, -4.3619
12901.01416015625, 68.51950502870551, 12.8925, -7.1432, -2.9261, 21.9460, -10.8369, -2.1774
12934.4130859375, 69.2884629633412, 20.4906, -3.6949, 5.4615, 28.9125, -8.2800, 7.5153
12966.213134765625, 71.92745380414188, 14.4497, 5.5722, 2.8674, 22.0843, 0.0977, 5.6807
13002.987060546875, 103.72329861221348, 0.2666, 10.1883, -1.1208, 8.1011, 4.6739, 0.9729
13033.094970703125, 69.4328995429418, -6.2026, 8.0488, -1.0453, 1.7954, 2.6653, 0.7494
13066.43408203125, 72.11958373047501, -6.4063, 11.8922, -3.1823, 1.6572, 6.7240, -1.0753
13103.053955078125, 73.92320149386852, -8.0460, 10.7536, -4.0441, 0.3062, 5.9675, -2.1718
13132.491943359375, 73.01755398361428, -11.2774, 10.1317, -1.6091, -2.6621, 5.6678, -0.1879
13168.125, 72.79615341221586, -8.7483, 9.9478, -1.8051, 0.2487, 6.2074, -0.6942
13200.825927734375, 72.85594208976302, 0.7830, 1.1645, 5.2048, 10.0778, -1.8136, 6.1582
13234.862060546875, 72.624213444986, 8.1363, 2.1882, 4.3573, 17.5755, -0.2770, 5.3543
13265.26611328125, 73.12941740419166, 17.0330, 0.2953, 1.9319, 26.6467, -1.4323, 2.8044
13300.259033203125, 72.15633283270779, 11.1415, -1.5303, 3.8446, 20.8640, -2.7346, 4.2840
13333.3828125, 71.77847760813223, 5.1565, -4.1847, 4.9535, 14.9021, -5.1196, 5.5182
13369.474853515625, 71.54670965718569, -0.9296, -3.5267, 0.7350, 8.8337, -4.0929, 1.4620
13400.326171875, 70.5611608245499, -6.2017, -5.3199, -1.5449, 3.5849, -5.3911, -0.9216
13435.8408203125, 70.19990386946044, -8.4580, -6.2337, -3.4761, 1.3249, -6.0515, -2.8183
13467.80810546875, 70.07005743679738, -6.8169, -9.0044, -5.4366, 2.9401, -8.7062, -4.4968
13499.554931640625, 69.62791363272022, -3.0850, -11.6682, -4.6691, 6.6698, -11.6572, -3.6625
13535.479736328125, 69.62546812248134, -0.5375, -8.9987, -2.3593, 9.2180, -9.4680, -1.4756
13562.39794921875, 69.245130130671, 4.4870, -7.8045, -2.0105, 14.1732, -9.0517, -1.1203
13595.61083984375, 69.72838350214579, 15.7788, -7.0724, -0.3675, 25.3030, -9.1069, 0.7822
13628.723876953125, 70.75045252253278, 20.6688, -1.2293, 0.0574, 29.9003, -4.1954, 1.5245
13662.131103515625, 70.44270754286434, 15.2679, 7.6673, 0.2947, 24.0896, 3.6745, 1.8458
13695.781005859375, 70.54190190205082, 0.6000, 9.4893, 0.4434, 9.1168, 4.9301, 2.1311
13733.111083984375, 71.2597128817683, -4.6403, 8.9464, -1.5775, 3.7516, 4.2665, 0.3835
13762.98095703125, 71.60389736342847, -7.2141, 9.2407, -2.9985, 1.2004, 4.6832, -0.8544
13799.412109375, 71.80461090626841, -9.4435, 10.3478, -3.3494, -0.8918, 6.0039, -1.3074
13829.861083984375, 71.86377222870307, -10.7910, 8.9918, -2.0168, -2.0695, 4.9139, -0.1523
13866.5732421875, 72.38825417965793, -9.8492, 7.9091, -1.0980, -0.8960, 4.2371, 0.4920
13896.7978515625, 72.33887317558333, -5.2460, 4.5704, 0.7314, 3.9835, 1.4011, 1.7023
13934.177978515625, 72.37258215502438, -0.1683, 4.3416, 6.0374, 9.2590, 1.7084, 6.6396
13966.950927734375, 72.17497751832397, 12.9302, -0.0091, 3.9717, 22.5827, -1.6306, 4.5806
13997.81689453125, 71.62751336333531, 26.3611, 3.1886, -1.5629, 36.1222, 2.2446, -1.5875
14032.391845703125, 71.076447714254, 8.9985, -2.3731, 4.4364, 18.7725, -2.9435, 3.8759
14062.44677734375, 70.27764306129575, -1.0215, -6.6613, 5.7260, 8.7749, -7.0602, 5.5215
14095.0458984375, 69.99228130624653, -3.9597, -4.4161, -2.8213, 5.8466, -4.3350, -2.8419
14128.277099609375, 69.80022742046071, -6.5396, -5.1297, -4.1286, 3.2542, -4.6281, -4.1653
14162.276123046875, 70.48299698773607, -8.5519, -6.0782, -5.7003, 1.2341, -5.4640, -5.5297
14196.35986328125, 70.00590715925193, -8.1466, -9.8329, -5.6117, 1.6394, -9.2895, -5.2822
14230.184814453125, 69.33785711837315, -6.6945, -10.0763, -4.1315, 3.1069, -9.8318, -3.9269
14263.4140625, 69.06414928984168, -0.6079, -8.2949, -4.0875, 9.1960, -8.5042, -4.1860
14300.361083984375, 69.09272408168205, 16.4387, -8.2462, 0.5733, 26.2117, -8.9694, 0.2049
14329.775146484375, 70.1078173960346, 25.9086, -1.9531, 1.0642, 35.5367, -3.8089, 1.2237
14362.56494140625, 70.21928966543484, 20.3391, 6.8943, 0.9728, 29.7248, 4.1098, 1.5435
14399.39013671875, 70.82077725722147, 2.8038, 7.4025, -0.4412, 11.9825, 3.9907, 0.0895
14433.717041015625, 70.65703934696836, -5.0448, 5.7496, -1.1767, 3.9973, 2.0390, -0.3753
14465.414794921875, 71.02303108581994, -7.2548, 5.4798, -3.4467, 1.7057, 1.7256, -2.1103
14501.119873046875, 71.45676552669393, -8.3869, 8.5691, -4.8567, 0.6490, 5.0182, -3.4729
14536.22802734375, 71.56239201645946, -9.3602, 11.3029, -2.9336, -0.2071, 7.9984, -1.7207
14565.888916015625, 71.72723036749053, -11.3309, 10.3909, -0.1811, -2.0723, 7.3936, 1.0298
14601.923095703125, 71.57612644904209, -10.0130, 8.0307, -0.2167, -0.5755, 5.5554, 0.7714
14634.6611328125, 71.58800662047297, -3.6898, 4.8685, 1.6079, 5.9460, 3.1045, 2.0672
14669.12109375, 71.37110762452656, 4.7443, 1.6031, 3.4400, 14.5148, 0.8381, 3.7888
14701.724853515625, 71.06320011427617, 22.8824, -2.2718, -1.4376, 32.6723, -2.1874, -0.8710
14733.423095703125, 70.26574062864431, 15.9224, -0.2647, -1.2782, 25.7149, 0.2183, -1.0711
14770.464111328125, 69.92136782049442, 5.2977, -4.3347, 2.5491, 15.0672, -3.4997, 2.3756
14802.04296875, 69.56894653884308, -1.9539, -4.8682, 0.0263, 7.7648, -3.6281, -0.3968
14837.079833984375, 68.98542936330966, -6.0871, -8.1626, -1.6965, 3.5985, -6.7129, -2.2040
14871.69384765625, 68.90223509393144, -8.5957, -8.4288, -3.1792, 1.0843, -6.9130, -3.5934
14904.001953125, 68.92370058780051, -6.8165, -10.5256, -4.0408, 2.8934, -9.1701, -4.2675
14937.643798828125, 68.79257364904005, -5.0994, -9.5424, -3.5526, 4.6557, -8.6152, -3.9389
14970.22509765625, 68.86672442454392, -1.6588, -8.6326, -2.5360, 8.1244, -8.3020, -3.1271
15003.671875, 68.90770426129603, 7.3885, -4.0257, -5.5163, 17.1492, -4.5725, -6.2908
15036.6650390625, 69.62175816335022, 19.5355, -4.4965, -0.6321, 29.2319, -5.9029, -1.0487
15072.35302734375, 69.56041806533254, 16.1940, 8.0056, -1.8807, 25.5370, 5.0368, -1.6267
15102.6328125, 70.75916227756424, 6.6784, 8.7454, -1.6445, 15.9249, 5.4829, -1.4774
15139.01416015625, 70.82739205724013, -2.6818, 8.7627, -1.0108, 6.3907, 5.0450, -0.8157
15172.219970703125, 71.36914556747801, -7.1427, 8.5601, -0.3017, 1.8262, 4.6669, 0.4550
15205.64013671875, 71.64085329806413, -7.4796, 8.1438, -2.9802, 1.4844, 4.3657, -1.7382
15238.9560546875, 74.30597956740115, -8.7622, 8.9269, -2.9397, 0.3184, 5.3434, -2.0065
15272.8642578125, 72.43323147757324, -10.9102, 8.9257, 0.8581, -1.6306, 5.7664, 1.1378
15300.598876953125, 72.84399495499292, -7.4457, 8.2665, 0.6675, 1.9113, 5.3391, 0.8859
15337.608154296875, 72.6247468570163, 0.0765, 5.9446, 0.3956, 9.5587, 3.4629, 0.7118
15371.76123046875, 72.8183709386755, 9.3261, 3.1344, 6.1660, 18.9224, 1.3197, 7.0532
15406.656982421875, 73.19368731420626, 19.8430, 0.4406, 1.1850, 29.5331, -0.4396, 2.4093
15438.661865234375, 72.43995166521249, 18.7954, -1.2838, 0.5643, 28.4783, -1.9960, 1.9447
15472.598876953125, 72.78465601623691, 4.2946, -6.2570, 3.0802, 13.9194, -6.7609, 4.8908
15508.969970703125, 72.45109538765938, -3.0070, -6.6849, -2.9285, 6.6089, -6.8148, -1.0083
15539.777099609375, 72.16296433476582, -6.4423, -6.1352, -4.3278, 3.2055, -6.2035, -2.5717
15571.863037109375, 71.84407034293947, -8.5684, -6.6783, -4.7936, 1.0971, -6.7968, -3.1403
15607.949951171875, 71.93805116737444, -8.8263, -8.8088, -2.7701, 0.8972, -9.3182, -1.6020
15641.2919921875, 71.78782360005759, -7.4731, -8.3877, -1.4796, 2.2562, -9.3702, -0.7418
15676.470947265625, 71.61609342047224, -1.4663, -7.6271, -1.9101, 8.1699, -9.3812, -1.4238
15707.321044921875, 71.56511743679404, 11.8072, -6.3272, -1.0844, 21.2286, -9.0110, -0.6327
15741.379150390625, 71.70232826947665, 21.0214, -4.8478, 1.2919, 30.1358, -8.3380, 2.2492
15774.503173828125, 71.85229582871766, 20.1040, 2.4937, 1.5011, 28.6388, -2.0016, 3.2672
15808.450927734375, 75.5909334612613, 4.6135, 6.3142, -0.6337, 12.8024, 1.2423, 1.2070
15843.2392578125, 86.67803470209401, -1.8656, 8.7476, -3.5373, 6.1121, 3.4037, -1.5450
15872.758056640625, 73.71790568983283, -4.6345, 9.8090, -3.8838, 3.2495, 4.4191, -1.6562
15911.59716796875, 76.69548726527732, -8.2350, 9.2219, -3.8283, -0.3416, 4.0469, -1.1666
15941.255859375, 81.5303167020795, -9.1946, 10.6744, -4.5217, -1.1844, 5.6258, -1.9686
15976.72216796875, 79.70718328163552, -9.7899, 10.5191, -1.9954, -1.5155, 5.7929, 0.3214
16009.014892578125, 79.61984248163297, -5.1764, 7.7883, 0.8220, 3.3848, 3.4863, 2.9121
16036.89208984375, 81.10358413063327, -3.2762, 7.4425, 1.3374, 5.4220, 3.3529, 3.2835
16073.45703125, 75.35586569789126, 7.5557, 0.7612, 4.1544, 16.8356, -1.9124, 5.8592
16103.261962890625, 73.11944809786961, 19.6589, -4.8857, 2.9076, 29.0078, -7.1296, 4.8393
16142.415771484375, 73.3000774284451, 10.0177, -3.4098, 2.8379, 19.4373, -5.1754, 4.9172
16176.4501953125, 72.8562194529341, -1.1375, -3.7998, 5.0855, 8.3031, -5.2910, 7.2812
16209.14013671875, 72.61993295497149, -3.1707, -4.0401, -1.9464, 6.3606, -5.0370, 0.1347
16244.39501953125, 71.5695245470624, -4.7996, -5.8630, -3.5979, 4.8088, -6.5899, -1.7754
16276.8359375, 71.56342180395417, -7.8051, -4.7812, -5.9545, 1.8597, -5.4236, -4.4218
16309.263916015625, 70.74057271022775, -9.0589, -7.1092, -4.3276, 0.6406, -7.8391, -3.0792
16341.16796875, 69.66068196743477, -9.2676, -7.2228, -2.3139, 0.4420, -8.2287, -1.3753
16376.373046875, 68.95610426942419, -5.4967, -7.4499, -0.7387, 4.1325, -9.0344, 0.2295
16410.451904296875, 69.23369675108198, 7.9158, -11.6677, -1.1615, 17.4244, -13.8751, -0.2207
16439.95703125, 70.01985959185487, 28.0242, -12.4648, 2.2238, 37.1689, -15.5101, 4.0321
16478.677978515625, 70.92052844090863, 27.3573, -1.8262, 3.7330, 35.9030, -6.1857, 5.7669
16508.208984375, 73.42387920817096, 8.7748, 5.4271, 3.3306, 16.9138, 0.1351, 4.7164
16540.718017578125, 71.06696882451702, 0.6349, 10.1222, -1.5592, 8.3508, 4.2341, -0.1573
16573.931884765625, 66.12300793464428, -5.6223, 10.1680, -3.0024, 1.7505, 3.9239, -1.3216
16611.6640625, 70.57205671015609, -10.6054, 14.3887, -2.1715, -3.2729, 8.1573, -0.2807
16640.897216796875, 79.66643336329349, -11.5586, 14.4621, -2.1771, -4.0830, 8.4491, -0.1450
16678.065185546875, 79.94384012247184, -10.7416, 13.7988, -2.7835, -3.0043, 8.1831, -0.5999
16707.546142578125, 80.27902485717411, -8.4683, 10.7548, -1.0850, -0.2203, 5.7784, 0.7524
16743.984130859375, 77.21587111009782, -4.2496, 6.7907, 0.9996, 4.5174, 2.5863, 2.2776
16776.941162109375, 76.60489129782741, 1.3720, 5.2050, 4.3810, 10.5090, 1.8446, 5.5605
16808.495849609375, 73.83282733867155, 30.1958, -3.8914, 4.5809, 39.6495, -6.0371, 6.0623
16844.768798828125, 76.27248368973427, 25.5354, -1.4584, 2.2043, 35.0963, -3.1677, 3.5600
16874.54296875, 72.86143737130107, 7.6593, -6.4307, 3.1688, 17.2972, -7.7307, 4.4302
16911.89208984375, 72.80460531417359, 0.0982, -8.9081, 0.7480, 9.7528, -9.8810, 2.1665
16942.257080078125, 72.57753599171687, -4.1116, -7.8545, -2.7974, 5.5896, -8.6259, -1.5880
16975.52490234375, 72.28115053057633, -8.6167, -6.4912, -4.3150, 1.1151, -7.1756, -3.3184
17010.415771484375, 72.09364553469234, -11.4636, -6.5320, -3.7973, -1.7362, -7.3167, -2.8308
17044.44287109375, 71.69053741231336, -11.0268, -7.2615, -3.5983, -1.3241, -8.3653, -2.6984
17076.44677734375, 70.83073115924604, -8.3630, -6.9599, -3.0128, 1.3244, -8.4002, -2.5130
17107.85693359375, 71.2281637469641, -0.8946, -8.6239, -2.7892, 8.7091, -10.5910, -2.5223
17144.838134765625, 70.33893204087236, 17.6172, -8.8370, -5.6814, 27.0554, -11.3901, -4.9241
17170.5869140625, 70.95691550209789, 26.9330, -8.3600, -1.1058, 36.2234, -11.3217, -0.0631
17214.647216796875, 71.26413858790538, 13.9225, 5.9192, 0.2895, 22.6279, 1.6408, 1.7322
17240.8779296875, 72.02316362449507, 2.4289, 9.1374, -0.8993, 10.8743, 4.4046, 0.6645
17277.0751953125, 74.01738995105002, -3.2650, 10.0832, -1.3185, 5.0537, 5.2541, 0.5920
17310.60791015625, 83.94241164902859, -5.4215, 10.0232, -2.8046, 2.8365, 5.2696, -0.4853
17343.82177734375, 99.80086826121612, -6.0328, 10.3421, -3.7548, 2.3318, 5.7604, -1.4718
17377.809814453125, 95.32217997547959, -7.4432, 9.7069, -3.0519, 1.0944, 5.3106, -1.0641
17410.847900390625, 82.39085573885161, -8.7102, 9.3481, -2.5617, -0.0220, 5.1559, -0.7977
17441.634033203125, 76.60676631840455, -5.1903, 9.0148, -0.2610, 3.7076, 5.2372, 1.3904
17477.5498046875, 78.98158213879354, 0.0769, 3.9111, 5.0735, 9.1312, 0.5671, 6.8078
17509.668212890625, 83.99343168167901, 15.8078, -1.8179, 2.7801, 25.1696, -4.3046, 4.3108
17541.7099609375, 84.18254257146684, 19.6646, -2.0749, 0.2120, 29.2253, -4.0152, 1.2113
17576.5087890625, 73.55429362446489, 8.5438, -3.1968, 2.6779, 18.1527, -4.8644, 3.7070
17609.35205078125, 73.20522753463739, 0.3778, -5.5361, 4.7223, 9.9935, -6.9300, 6.0506
17644.80810546875, 72.82086954274703, -3.8270, -4.9311, 1.3246, 5.8351, -6.1356, 2.4918
17676.544921875, 72.00935187760285, -6.5469, -2.8533, -2.1886, 3.1566, -3.8726, -1.2017
17710.694091796875, 71.40639417961081, -7.2263, -5.5996, -3.7080, 2.4871, -6.4660, -2.6739
17744.741943359375, 71.06625586119648, -7.5270, -9.9452, -2.9614, 2.2010, -10.9021, -2.1735
17775.618896484375, 70.4777918449338, -6.9647, -9.2845, -2.2594, 2.7548, -10.5572, -1.9731
17808.595947265625, 69.91003766541013, -0.9999, -8.9356, -1.2044, 8.6233, -10.8185, -1.3451
17843.157958984375, 69.66798519189172, 8.0235, -7.6995, -0.4875, 17.4840, -10.2816, -0.4360
17877.754150390625, 69.05265410615355, 22.4072, -7.7603, -1.1714, 31.5755, -11.1085, -0.2216
17908.4208984375, 69.58900722450353, 17.7299, 0.9462, 0.9631, 26.4197, -3.2587, 2.6882
17941.385986328125, 70.88909472653832, 7.8291, 5.0776, -0.9710, 16.1818, 0.3080, 0.9403
17977.369140625, 72.4854995429055, 0.8667, 6.8797, -3.2049, 9.0691, 1.8667, -1.2652
18007.47802734375, 72.08291001644893, -5.5243, 8.2515, -4.0302, 2.6022, 3.1853, -1.9172
18044.825927734375, 73.6344297959781, -9.7106, 8.9760, -4.1313, -1.5452, 3.9844, -1.9912
18074.14794921875, 72.59098395906439, -11.6588, 10.1914, -4.0408, -3.4206, 5.3162, -1.9113
18111.291015625, 72.53857906111388, -10.7887, 9.4766, -1.7200, -2.4098, 4.8287, 0.3681
18143.3671875, 72.51502499584413, -7.1603, 8.9784, -0.7094, 1.4370, 4.6237, 1.1055
18176.30419921875, 71.88488966535937, -0.0454, 5.7069, 1.9459, 8.8692, 1.8639, 3.3359
18209.48486328125, 71.80198134699802, 12.8944, 2.0037, 2.2704, 22.0668, -1.1688, 3.6750
18241.158935546875, 71.74532395107839, 21.5360, -1.6141, 2.3831, 30.8511, -4.2886, 3.8822
18277.7939453125, 71.83918164906856, 12.0947, -2.1429, 4.9092, 21.5068, -4.4614, 6.3948
18309.52001953125, 71.7341173143433, 3.0499, -3.2235, 5.2167, 12.5220, -5.2433, 6.7566
18344.635986328125, 71.67915849801359, -0.8552, -4.6122, 1.3353, 8.7070, -6.2245, 2.7966
18375.56298828125, 71.63679695515764, -5.5758, -5.1882, -4.3289, 4.0796, -6.4326, -3.1473
18410.937255859375, 71.04169249793993, -7.6754, -5.8043, -5.1422, 2.0295, -6.8328, -4.1798
18443.508056640625, 70.86515310209698, -10.1334, -6.5220, -4.7659, -0.4178, -7.5709, -3.9430
18476.18798828125, 70.44774580410397, -9.3833, -7.3344, -4.4744, 0.3142, -8.5976, -3.7448
18511.337158203125, 68.95581955922269, -4.3515, -7.6066, -3.4915, 5.3216, -9.1572, -3.0466
18539.73095703125, 68.95686325717678, 4.3376, -12.2548, -2.6180, 13.7996, -14.7360, -1.9219
18578.3388671875, 68.8273366694421, 18.5218, -11.6889, -4.0223, 27.4114, -15.5435, -2.5097
18608.381103515625, 69.16197510211985, 22.8600, -9.5345, 2.7245, 30.8836, -14.6766, 5.0379
18644.994140625, 69.18797471843571, 18.6726, -0.1365, 2.2347, 25.6016, -6.5613, 4.8578
18677.1728515625, 70.90061729799116, 6.5576, 8.6140, -1.2781, 12.7879, 1.3999, 1.0262
18709.40185546875, 70.75734648986389, -0.8454, 11.8032, -2.4637, 5.0572, 4.3099, -0.1878
18742.532958984375, 70.93520653886326, -2.7911, 12.0523, -1.8148, 3.0216, 4.6029, 0.8097
18775.868896484375, 71.45681800016504, -3.7666, 12.8022, -2.6337, 2.0782, 5.4371, 0.1526
18811.6201171875, 71.74775115117666, -6.9751, 13.9625, -2.9559, -0.9366, 6.7017, -0.3124
18840.175048828125, 73.3287998123164, -6.6460, 12.9126, -1.3535, -0.4203, 5.8103, 1.2863
18880.166748046875, 71.98341803276823, -4.4182, 8.0172, 0.0149, 1.8793, 1.0105, 2.7384
18907.81201171875, 72.44922775517499, 1.2390, 3.2938, 3.0836, 7.6278, -3.6717, 5.6984
18946.205810546875, 74.9172806775432, 0.2164, 1.0078, 5.6157, 6.8392, -5.8463, 7.9244
18974.01416015625, 72.75749253048893, 12.3701, -3.0301, 4.6694, 19.3863, -9.5201, 6.8657
19012.392822265625, 72.59122940405888, 11.5166, -1.2980, 2.6610, 18.9464, -7.4008, 4.5910
19041.133056640625, 72.12811515915135, 6.1731, -0.6108, 4.4253, 13.9188, -6.1734, 6.7123
19070.43798828125, 71.81912711835004, 0.0567, -1.1072, 3.8559, 7.8892, -6.4048, 6.4557
19113.10888671875, 70.9998638041753, -5.0380, 2.0818, -2.3267, 3.4964, -1.7985, 0.5504
19139.761962890625, 71.10145428583219, -6.4507, -1.3543, -1.7732, 2.5607, -4.0887, 0.9629
19180.55712890625, 71.57750402454514, -8.7119, -1.9711, -7.3212, 0.5891, -3.6957, -4.7354
19207.504150390625, 71.44527048983291, -5.8524, -5.9213, -5.1763, 3.6732, -6.6858, -2.9739
19246.346923828125, 71.15936088161665, -1.5371, -12.7320, -4.2815, 8.0278, -12.9878, -2.1323
19274.298095703125, 70.12904800007293, 4.3683, -12.8219, -5.9022, 13.9744, -13.0144, -3.9383
19312.599853515625, 69.92750266132748, 11.3038, -15.2398, -0.5323, 20.9301, -15.7470, 1.2697
19340.530029296875, 69.40021563266428, 22.6076, -11.5291, 1.1732, 32.0603, -12.9685, 3.3516
19379.712890625, 69.728158204109, 21.7695, -1.9214, 3.9880, 30.9377, -4.5295, 6.2929
19407.4638671875, 70.83341141223623, 16.6490, 5.2426, 3.1775, 25.5502, 1.7560, 5.3647
19443.052978515625, 75.65339662044222, 9.2273, 9.1801, 1.0983, 17.8263, 4.9136, 3.1045
19475.10791015625, 73.20517342865531, -0.2353, 11.0880, -2.3861, 8.0694, 6.2647, -0.4015
19511.64599609375, 72.66259164906293, -4.2444, 11.2321, -2.8946, 3.8864, 6.1708, -0.7868
19540.921875, 73.93549690616081, -6.2491, 10.2111, -2.6959, 1.7460, 5.0034, -0.4310
19578.14599609375, 76.3554608652816, -8.0011, 9.7074, -3.7321, -0.1357, 4.3136, -1.4489
19607.137939453125, 77.20834884895108, -8.6025, 7.5686, -0.3324, -0.9423, 1.8343, 1.8142
19644.739013671875, 74.40488776316712, -9.7711, 7.6483, -0.3789, -2.3508, 1.5658, 1.6492
19675.0439453125, 72.82530235904942, -3.3913, 3.8635, 3.1711, 3.9980, -2.3305, 4.9608
19711.240966796875, 72.72767992643887, 1.0844, -0.5824, 6.6260, 8.4461, -6.7388, 8.6447
19742.14013671875, 72.71704297950077, 10.6555, -0.8697, 4.4385, 18.1780, -6.9207, 6.1615
19777.330078125, 72.02257212250252, 8.5442, -0.4109, 2.6314, 16.5291, -6.0461, 3.4411
19810.64892578125, 71.43910240818826, 3.4943, -2.0554, 4.9605, 11.6738, -7.3225, 6.1950
19844.074951171875, 71.2308159346779, 0.2828, -2.2976, 2.9911, 8.5774, -7.1569, 4.9298
19873.884033203125, 70.73768995926146, -1.3534, -1.9246, -2.9310, 7.2399, -6.2538, -1.0382
19912.203125, 70.64927484088192, -6.5686, -1.1220, -5.6377, 2.3583, -4.8658, -4.0673
19941.449951171875, 69.92708533886315, -6.6076, -0.9336, -5.4163, 2.4476, -4.2645, -3.6616
19977.69384765625, 69.90672795110845, -8.8329, -4.7885, -4.8299, 0.2197, -7.8895, -2.6839
20008.930908203125, 69.98908300419156, -8.9898, -6.8183, -3.1942, 0.1206, -9.7718, -1.0852
20042.60595703125, 69.43246560007003, -3.8394, -7.6565, -1.8872, 5.2692, -10.7031, 0.0932
20077.068115234375, 70.04535604912971, 3.3637, -9.2823, -3.2710, 12.4501, -12.6312, -1.7244
20109.200927734375, 70.16361846539446, 10.1350, -11.7989, 0.7378, 19.1556, -15.4465, 1.9604
20142.931884765625, 70.39389484901515, 19.5670, -9.1167, -2.3489, 28.0979, -13.5073, -0.3201
20175.887939453125, 71.16358328177137, 16.8485, -1.4973, -0.0117, 24.7248, -6.6876, 2.6707
20209.09814453125, 101.46351581218848, 7.9798, 3.7396, -0.0726, 15.5327, -2.0358, 2.3291
20244.98583984375, 97.53787574697573, 1.7184, 6.9256, -1.2897, 9.0688, 0.8483, 0.9924
20274.9140625, 76.73606965714171, -3.1599, 9.1174, -2.8716, 3.9859, 2.9157, -0.2934
20311.671142578125, 80.94960457143041, -7.5651, 11.5026, -3.1935, -0.4642, 5.3479, -0.3888
20342.85107421875, 86.078447208215, -10.3641, 12.8225, -3.9228, -2.9576, 6.8896, -1.4500
20376.105224609375, 80.22116349389444, -10.0060, 11.7440, -0.2129, -2.2808, 6.0919, 1.9190
20409.400146484375, 74.58454624477996, -7.0969, 11.5373, -0.8710, 0.8468, 6.1898, 1.2438
20443.889892578125, 74.61412706110421, -2.2435, 8.0435, 1.6465, 5.9614, 3.0477, 3.6190
20475.138916015625, 74.35015262846119, 4.5486, 4.4274, 5.2028, 13.1174, 0.0522, 7.1012
20510.361083984375, 74.0071947264079, 17.4678, -3.3066, 2.5318, 26.4158, -6.9288, 4.2587
20542.545166015625, 72.45072008160047, 20.3635, -1.6581, 1.5299, 29.5247, -4.8996, 2.8473
20577.343994140625, 71.93709873464513, 5.8734, -1.0364, 4.7693, 15.1376, -4.0085, 5.9987
20609.9228515625, 71.67174272655917, -1.4792, -1.8566, 4.8501, 7.8691, -4.4354, 6.3089
20645.010986328125, 71.034899322519, -0.4884, -1.1786, 1.6151, 8.9824, -3.2022, 3.1572
20676.199951171875, 70.92679046534954, -0.5040, -2.6039, -4.0887, 9.0181, -4.2967, -2.4651
20709.399169921875, 70.19976582862371, -3.8803, -2.6482, -6.3476, 5.6675, -4.1610, -4.6983
20739.062255859375, 70.0819655674201, -6.3564, -4.0689, -6.3660, 3.2004, -5.5203, -4.7137
20781.22216796875, 69.41115865322026, -8.4603, -7.6520, -6.1810, 1.0937, -9.0784, -4.4905
20807.19775390625, 68.99128693066142, -5.3607, -8.0664, -6.5772, 4.1791, -9.6964, -4.9942
20845.761962890625, 68.31906723280518, -0.0063, -8.5899, -6.1509, 9.4607, -10.6346, -4.6129
20874.569091796875, 68.49424533073083, 13.8821, -8.5460, -3.7434, 23.1753, -11.1012, -1.9329
20910.9970703125, 68.82146264492916, 21.4103, -5.4131, -3.5390, 30.3757, -8.8231, -1.4983
20941.536865234375, 69.64589662038887, 16.6899, 0.5487, -1.1646, 25.3063, -3.6543, 0.9001
20975.931884765625, 70.71125444084555, 11.0813, 4.9110, 0.3158, 19.1840, -0.0865, 2.6701
21009.52294921875, 70.8218114857968, 5.5866, 6.8099, -0.8524, 13.2417, 1.2269, 1.6774
21044.44287109375, 71.75882344499028, -0.7104, 7.4808, -0.4941, 6.6861, 1.5294, 1.9644
21074.892822265625, 73.05767275924988, -4.0751, 8.5453, -0.0921, 3.1536, 2.3821, 2.3433
21110.597900390625, 74.6377444571678, -5.7077, 9.3699, 0.4527, 1.3819, 3.0860, 2.9865
21144.14013671875, 80.02299397550145, -5.6711, 7.4476, 0.1166, 1.3086, 1.0238, 2.6046
21176.919921875, 84.1278513551559, -5.3511, 7.8482, -0.1397, 1.5365, 1.2377, 2.1038
21209.133056640625, 82.47876111024206, -6.2521, 7.8157, 1.0690, 0.5997, 1.1506, 3.2596
21240.60400390625, 80.26333776326119, -0.2022, 1.4345, 1.1461, 6.8280, -4.9968, 3.4667
21277.2548828125, 88.08360060412328, 8.7720, 1.7314, -0.6036, 15.9339, -4.6217, 1.5215
21309.9521484375, 87.94313858778872, 11.1085, 3.6347, -2.8233, 18.4904, -2.6254, -1.2459
21341.34619140625, 81.42129622041368, 3.7205, 1.2939, 0.3579, 11.3355, -4.7658, 1.5672
21376.88818359375, 78.5271434775021, 0.2170, -0.6012, 1.5038, 8.0107, -6.4459, 2.6297
21410.340087890625, 85.80926540411869, 0.1388, -2.7578, 1.0875, 8.1723, -8.3098, 1.9864
21444.179931640625, 96.58188798368478, -0.5677, -2.3332, -0.2766, 7.7244, -7.5565, 0.0807
21475.407958984375, 84.58522293882648, -1.4620, -1.7054, -1.3654, 7.0313, -6.6078, -1.3665
21507.65771484375, 74.3084561549836, -1.4576, -3.1151, -0.8738, 7.2233, -7.6724, -1.0846
21545.367919921875, 73.3229337713273, -3.1364, -3.1210, -0.9268, 5.5519, -7.6567, -1.2614
21574.80615234375, 72.80209097135317, -3.3270, 0.1496, -3.3081, 5.3296, -4.4369, -3.7513
21609.56201171875, 72.63317464487035, -3.0755, -0.1844, -2.9141, 5.5575, -4.8135, -3.3740
21641.885009765625, 72.61325693874403, -1.9687, -1.6604, -3.1557, 6.6720, -6.2879, -3.4622
21676.93408203125, 72.36145064496587, 1.6796, -1.9305, -3.8947, 10.4125, -6.3907, -4.0062
21710.070068359375, 72.03631190213103, 6.8915, -3.1603, -5.8224, 15.6897, -7.4659, -5.3477
21743.64306640625, 71.95742182867878, 7.4811, -1.8653, -5.8790, 16.2394, -6.1271, -4.7387
21774.60498046875, 71.9889019348218, 5.8946, -0.7810, -4.5155, 14.6274, -4.9710, -2.9815
21809.065185546875, 71.96215809808785, 2.8154, 0.6208, -3.5700, 11.5160, -3.5282, -1.7654
21844.26513671875, 71.955202465426, -2.0383, 2.2502, -2.2547, 6.6676, -1.8667, -0.4027
21875.83203125, 71.93535075930035, -4.2852, 2.4699, -1.6661, 4.4658, -1.5646, 0.1540
21910.449951171875, 71.93037781236089, -5.0959, 2.1483, -1.7591, 3.7481, -1.7095, -0.0066
21941.64599609375, 71.92781574704827, -4.3083, 1.2540, -3.9013, 4.7341, -2.3162, -2.6136
21977.287109375, 71.92751133888315, -4.3425, 2.3773, -3.3192, 4.9334, -0.7914, -3.0236
22006.7900390625, 71.92943856337416, -3.1092, 2.3755, 0.2063, 6.3354, -0.1472, -0.5731
22045.404052734375, 71.92418094704824, -2.9971, -0.8821, 1.0218, 6.5161, -3.0649, 0.0711
22073.870849609375, 71.94054440012019, 0.0573, -0.3282, -1.1568, 9.6634, -2.1382, -1.9418
22111.89892578125, 71.93900324093833, 3.6674, 0.2247, -2.6837, 13.3749, -0.9414, -3.4420
22142.989013671875, 71.9197356083007, 2.9150, 0.7002, -1.5937, 12.6555, 0.0477, -2.5256
22178.171875, 71.85931911846501, 1.2262, 0.8756, -2.3452, 10.9526, 0.6746, -3.5811
22208.68896484375, 71.77482594293363, 0.5080, 0.8923, -1.8475, 10.1546, 1.1643, -3.5910
22243.176025390625, 71.66513996740126, 1.2345, -2.8220, -0.5279, 10.7970, -2.1594, -2.5992
22276.458984375, 71.56425505312149, 0.6075, -0.6690, -1.5776, 10.1754, 0.1824, -3.5530
22309.170166015625, 71.47079603271108, -0.6979, 0.3019, -1.4942, 8.8973, 1.3186, -3.2458
22344.72119140625, 70.73982079191384, -0.8814, -1.6487, -0.8133, 8.7219, -0.4179, -2.3727
22376.093017578125, 70.68569709395011, -1.5470, -0.9469, -0.0481, 8.0399, 0.5442, -1.4757
22410.760009765625, 70.43996298782297, -1.4478, -0.0170, -0.0286, 8.1253, 1.7584, -1.2010
22442.100830078125, 70.10872817968026, -0.6343, -0.3556, -0.4804, 8.9162, 1.7350, -1.2469
22475.345947265625, 69.78868502045545, -1.0344, -0.5474, -0.3353, 8.4774, 1.8145, -0.6774
22511.413818359375, 69.32804675102352, 0.4252, -0.5614, -1.2253, 9.8554, 2.1253, -1.3746
22542.01708984375, 69.04463608165794, 0.6855, -1.3301, -0.4603, 10.0070, 1.7092, -0.6687
22576.822021484375, 68.85405605720305, 0.1540, -0.9301, 0.5057, 9.3842, 2.3758, 0.2970
22611.2490234375, 68.95373697148705, 1.0554, -0.7988, 0.0698, 10.2146, 2.7038, -0.0428
22643.655029296875, 68.62784112658409, 2.2823, -0.3713, 0.2563, 11.3741, 3.3033, 0.1739
22676.3828125, 68.59859648166992, 2.0422, 0.9214, -0.2775, 11.0650, 4.7577, -0.4832
22709.97900390625, 68.15587711034203, 1.2018, 1.4048, 1.1598, 10.1365, 5.4254, 0.7383
22739.321044921875, 68.45715781235432, 0.7035, -0.8266, 2.5294, 9.5988, 3.2738, 2.0488
22779.671875, 68.35393515107442, 0.5596, -3.9830, 1.2454, 9.4106, 0.2269, 0.9177
22808.97998046875, 68.582773191946, 1.1453, -5.3267, 0.5218, 9.9370, -0.9899, 0.2593
22840.5849609375, 68.31351450622493, 0.5560, -6.2205, -0.6525, 9.2745, -1.7385, -0.9146
22877.567138671875, 69.24303573886806, 0.6798, -5.5868, -0.9347, 9.2973, -0.9087, -1.0915
22909.386962890625, 68.78692380422787, 2.3265, -6.1690, -1.8660, 10.9029, -1.4138, -1.7986
22945.77294921875, 69.31983135521482, 3.9287, -6.0852, -3.9433, 12.6571, -1.6231, -3.6696
22976.442138671875, 68.86785912667938, 3.6517, -4.4758, -3.8999, 12.5977, -0.4657, -3.6576
23011.056884765625, 68.54870597555306, 3.8769, -4.1735, -2.9611, 13.0349, -0.6714, -2.7732
23043.782958984375, 68.61149268575755, 6.7895, -3.4692, -3.1674, 16.2210, -0.7938, -2.9232
23077.7919921875, 68.53876069400367, 8.9120, -1.0017, -3.6913, 18.5540, 0.7872, -3.7367
23111.430908203125, 68.42379309402023, 8.0279, 0.4721, -1.7290, 17.7874, 1.4017, -1.9716
23145.23095703125, 68.59386961648424, 10.5009, 2.9288, -3.2446, 20.3030, 2.6395, -3.3252
23178.8837890625, 68.89497950211411, 6.9057, 6.8774, -2.5432, 16.5921, 5.3486, -2.6288
23211.23388671875, 68.71902528986777, 1.6567, 8.3298, -0.3217, 11.1583, 5.9035, -0.3687
23246.5439453125, 69.24153720817895, -3.8260, 9.4344, -0.5349, 5.4476, 6.2465, -0.4411
23278.766845703125, 70.26084383684548, -7.3252, 8.0301, -0.8737, 1.8435, 4.5512, -0.8308
23313.181884765625, 70.50277083270392, -9.3629, 7.7221, -0.4301, -0.1499, 4.3630, -0.5179
23345.343994140625, 70.39758425313417, -9.9088, 7.2341, 0.6649, -0.5312, 4.3754, 0.4205
23380.0439453125, 70.54549467761271, -8.9722, 6.6566, 1.1833, 0.6068, 4.6147, 0.6891
23412.14306640625, 70.41226437558798, -7.6769, 4.5115, 0.8722, 2.0089, 3.2714, -0.0325
23447.19580078125, 70.43431503679979, -4.0922, 2.9123, 3.2676, 5.5689, 2.4003, 1.6643
23481.35693359375, 70.07856117559578, -0.6276, 1.9937, 6.7804, 8.9754, 2.0640, 4.7935
23510.197021484375, 70.25023065313643, 9.0794, -1.0741, 5.2647, 18.7354, -0.2910, 3.7415
23546.974853515625, 69.73628508578935, 20.1421, 2.4682, -2.4611, 29.8481, 3.5748, -3.3209
23581.034912109375, 70.58121831838339, 9.7334, 5.1180, 3.4100, 19.3965, 6.6107, 2.6574
23612.6708984375, 70.37413137148664, 1.3531, 2.4221, 1.7820, 10.9442, 4.4646, 1.6869
23646.096923828125, 69.99578024501977, 2.1047, 2.3355, -5.5429, 11.5588, 4.8322, -4.7965
23681.626220703125, 70.48091789394437, 3.5788, -1.6873, -7.7198, 12.8531, 1.2635, -6.5155
23711.35498046875, 70.35405634295532, -0.0029, -7.6715, -6.4023, 9.1396, -4.3461, -5.1664
23750.245849609375, 70.41582159190193, -1.9241, -10.5356, -7.0390, 7.1585, -7.0575, -5.7818
23778.842041015625, 70.45530792658346, -2.4322, -10.3717, -8.6126, 6.7099, -7.0252, -7.4325
23813.5400390625, 70.42128460414314, -4.9407, -11.4771, -6.0480, 4.3904, -8.5826, -5.1971
23848.30322265625, 70.34525112663223, -6.5466, -9.6086, -3.1730, 2.9582, -7.2474, -2.6688
23881.448974609375, 70.25200106952705, -3.9183, -8.0956, -2.6739, 5.7411, -6.4036, -2.6221
23916.873046875, 70.01431756747984, 9.4870, -3.4953, -2.5015, 19.2159, -2.3616, -2.9850
23943.27001953125, 69.91277444090261, 19.7964, -0.8587, -5.1161, 29.5853, -0.4393, -5.5303
23981.756103515625, 70.0553480490892, 22.2673, 6.0276, -3.2439, 32.0394, 5.2933, -2.8717
24014.900146484375, 69.90953015520043, 10.7374, 7.4729, -0.9483, 20.3016, 5.7449, 0.3594
24048.125, 69.74140469390494, 2.4134, 6.7307, -2.1785, 11.8078, 4.4840, -0.4850
24081.987060546875, 69.80220607347538, -2.8336, 6.1449, -3.8209, 6.5110, 3.5877, -2.3016
24112.449951171875, 70.21122862049648, -8.7220, 6.6325, -3.3759, 0.6553, 3.9401, -2.3821
24148.567138671875, 70.61704124906213, -12.5822, 7.3145, -1.8614, -3.1728, 4.6127, -1.2846
24183.288818359375, 70.46514884086122, -13.3828, 7.6117, -0.9501, -3.9269, 5.0313, -0.6360
24214.8212890625, 70.4707169061708, -11.3027, 5.9529, -0.1129, -1.8121, 3.4843, -0.0432
24249.759033203125, 70.73845227763994, -7.5574, 3.8471, 3.0011, 1.8938, 1.2975, 2.4141
24282.677978515625, 70.69333054696948, -3.4049, 4.0031, 7.0034, 6.0718, 1.6548, 6.0834
24317.51904296875, 70.83727729805194, 10.3588, 0.4163, 3.8277, 19.9666, -1.5106, 3.4435
24348.554931640625, 70.89191684906748, 25.6805, 0.8200, -0.8781, 35.3010, -1.0674, -0.6445
24383.43310546875, 71.0102074857941, 12.6643, 2.4749, 1.6185, 22.3006, 0.6596, 1.7458
24415.39990234375, 71.02798561639473, -1.2337, 2.0350, 2.1638, 8.4225, 0.4203, 2.7307
24452.096923828125, 71.01836793476005, -3.1050, 0.5894, -1.3544, 6.5374, -0.5691, 0.0072
24483.304931640625, 71.04413939598973, -4.0660, -1.8094, -4.3488, 5.5490, -2.0634, -2.4365
24518.77294921875, 70.63207788579173, -6.4324, -7.0154, -4.0528, 3.2112, -6.7198, -2.2969
24551.14404296875, 70.40153070213661, -8.4738, -6.4796, -3.1949, 1.2397, -5.8903, -1.9827
24584.008056640625, 70.25519735523031, -8.4506, -9.2033, -0.8375, 1.3095, -8.3782, -0.3567
24618.56396484375, 70.56936983680721, -6.4404, -10.3488, -1.0144, 3.3345, -9.5602, -1.0101
24651.68603515625, 70.23127966545785, -2.2883, -9.7048, -2.7552, 7.4927, -9.0610, -3.0520
24684.90478515625, 70.51764684904317, 0.7794, -8.0069, -1.0607, 10.5608, -7.5456, -1.5906
24717.578857421875, 70.17377301239563, 12.4558, -4.0268, -1.2444, 22.2575, -3.7935, -1.0425
24750.858154296875, 70.16927462055911, 25.7705, 2.1696, -6.6192, 35.5115, 1.8575, -5.5306
24785.23095703125, 70.2114393307508, 17.1510, 7.4704, -4.3435, 26.8748, 6.6463, -3.3746
24820.861083984375, 70.23382827769233, 2.4022, 6.7379, 1.1441, 12.1238, 5.6500, 1.8356
24852.277099609375, 70.19692881646957, -0.5073, 5.6692, -0.1015, 9.1892, 4.4716, 0.7428
24883.90087890625, 70.13215605727957, -2.4033, 4.9228, -0.9394, 7.2698, 3.6875, 0.0974
24922.22607421875, 70.10135498789398, -5.4374, 3.8111, -0.9230, 4.2211, 2.5049, 0.1622
24950.518798828125, 70.1894628817643, -8.0971, 4.2022, -1.0069, 1.5561, 2.7456, -0.0769
24988.89990234375, 70.17167185318758, -10.2348, 3.6343, 0.5846, -0.5906, 2.0104, 1.3086
25019.674072265625, 70.06523038376258, -7.6207, 3.1059, 4.3255, 1.9852, 1.2544, 5.0103
25055.89599609375, 70.52304564085648, 3.8329, 3.1518, 3.1448, 13.4385, 1.3065, 3.8497
25085.511962890625, 70.53393866942336, 7.2301, 2.0446, 2.6849, 16.8682, 0.3247, 3.2504
25120.1689453125, 70.69074900414343, 17.0978, 4.8009, -1.6113, 26.7624, 3.1466, -1.4430
25155.140869140625, 70.75450819600147, 8.3437, 3.9836, -0.9269, 18.0120, 2.3982, -1.3511
25185.843017578125, 70.93745714295146, 0.7490, 0.2075, 2.0631, 10.4285, -1.2881, 1.5724
25221.737060546875, 71.0150483021429, -4.3952, -1.9362, 0.3084, 5.3250, -3.2329, 0.2249
25255.4560546875, 71.01749391031214, -7.3868, -2.3655, -1.9426, 2.3767, -3.2771, -1.8262
25286.457763671875, 70.97346840010407, -9.1279, -2.7384, -2.7184, 0.6684, -3.1746, -2.8292
25324.208984375, 70.93909026132204, -9.1317, -4.4512, -1.2076, 0.6402, -4.1524, -1.9770
25354.10302734375, 70.89256120008584, -8.2629, -5.9878, -1.4285, 1.4869, -5.5186, -2.3721
25389.892822265625, 70.86915507763851, -5.3733, -7.9210, -2.1269, 4.3383, -7.4588, -3.4081
25421.127197265625, 70.82443717559315, -2.6085, -9.2353, -2.3395, 7.1141, -8.9148, -3.5802
25457.885009765625, 70.79590742865177, 19.1147, -8.2389, -6.0439, 28.9021, -8.6736, -6.4781
25488.33203125, 70.77191066130474, 23.8923, -8.2527, -6.0593, 33.6679, -9.0085, -6.2523
25521.828857421875, 70.45998280822457, 20.3041, 1.8996, -3.5157, 29.9413, 0.0848, -3.4843
25556.6572265625, 70.42307060413313, 3.3382, 8.0842, -0.5670, 12.6887, 5.1360, -0.3512
25590.514892578125, 70.37404257960698, -1.8053, 7.4239, -2.0529, 7.3873, 4.0782, -1.3647
25622.3427734375, 70.98026789399715, -3.7637, 7.4046, -2.2243, 5.3844, 3.9769, -1.3678
25657.511962890625, 71.25435417156554, -8.8865, 5.6930, -1.3636, 0.2644, 2.3326, -0.2966
25690.244140625, 71.28341133891557, -9.5700, 4.2531, -1.3763, -0.3805, 0.9795, -0.3727
25722.369873046875, 71.26565064501824, -9.6226, 5.3492, -1.2720, -0.4332, 2.0619, -0.3141
25759.0458984375, 71.27692707766043, -6.9896, 7.2418, 1.4474, 2.2042, 3.8797, 2.0322
25787.79296875, 71.34717238378741, -5.8829, 7.5484, 2.6523, 3.3194, 4.1824, 3.0490
25826.576904296875, 71.38008871848882, 5.4126, 5.0498, 5.7092, 14.8265, 2.3147, 5.9710
25854.592041015625, 71.34246811441291, 16.2252, 2.0250, 4.6528, 25.6925, -0.4733, 5.1995
25891.586181640625, 71.20213795927846, 14.4826, -0.7591, 2.1630, 24.0334, -2.8861, 2.8175
25924.8310546875, 71.19628882458419, 2.8288, -4.3648, 4.1605, 12.3904, -6.3593, 5.0362
25958.46484375, 71.2907258613383, -3.4872, -4.0004, 0.1526, 6.0882, -5.7697, 1.3156
25992.953125, 71.3238361307478, -6.9722, -2.6020, -2.9393, 2.6610, -4.0399, -1.7971
26024.26806640625, 71.28368224503106, -8.9182, -2.6437, -4.1957, 0.7857, -3.7257, -3.2827
26059.76611328125, 71.24646711848291, -9.5114, -3.9154, -3.7484, 0.2378, -4.7320, -3.0716
26090.760986328125, 71.26814915928951, -9.5681, -5.1449, -3.8548, 0.1954, -5.9445, -3.4032
26125.8349609375, 71.27889469397526, -7.6756, -6.3699, -3.2021, 2.0858, -7.3067, -3.1078
26156.824951171875, 71.22672002458354, -0.1101, -7.5919, -3.1929, 9.6223, -8.7750, -3.4197
26194.49609375, 71.13051920825315, 12.2489, -9.2278, -4.1282, 21.9221, -10.8399, -4.1547
26224.0087890625, 71.06606222048839, 22.2553, -6.4285, -6.4309, 31.8137, -8.5904, -6.0648
26253.436767578125, 71.04437804906016, 22.5101, -1.3254, -6.2571, 31.9535, -3.9213, -5.7522
26296.802734375, 71.07529847355939, 4.7646, 6.7450, -0.4535, 13.9078, 3.3058, 0.4097
26321.8779296875, 71.18221861236394, -0.0380, 6.9047, -0.0311, 9.0330, 3.3193, 0.9848
26363.0888671875, 71.23321209809278, -4.4511, 7.6519, -1.5281, 4.4552, 3.8529, 0.0265
26389.96484375, 71.2530982042218, -6.2124, 7.8097, -2.5253, 2.6989, 4.0431, -0.9213
26430.125, 71.3418535674895, -9.1689, 8.6674, -1.5721, -0.1624, 5.0160, -0.2604
26455.553955078125, 71.3860589144212, -9.7690, 8.5811, -0.8178, -0.7127, 5.0091, 0.3633
26498.633056640625, 71.4429118776883, -7.6839, 6.3551, 2.0030, 1.4708, 2.9877, 3.0147
26522.1708984375, 71.53277773890954, -3.8789, 5.8439, 2.1211, 5.3175, 2.5670, 3.0477
26565.131103515625, 71.55515269401718, 8.7502, -2.2620, 3.0444, 18.1802, -4.9089, 3.5331
26587.445068359375, 71.52014164094732, 13.3199, -2.0604, 2.1177, 22.7826, -4.6093, 2.4799
26630.260009765625, 71.4041565225408, 10.0212, 0.2614, 0.6629, 19.5521, -2.0443, 0.7865
26661.06591796875, 71.39868865314776, 3.4164, -1.0890, 0.9040, 12.9802, -3.2458, 1.1341
26695.2490234375, 71.40100586131324, -0.8852, -1.1900, 0.0109, 8.7465, -3.0035, 0.3457
26722.873046875, 71.34573951845954, -2.3710, -2.1349, -0.7465, 7.2842, -3.8137, -0.3880
26764.5, 71.24400640826249, -6.9859, -2.6631, -3.6490, 2.7292, -3.9658, -3.3505
26791.077880859375, 71.2219047184725, -7.4402, -3.2694, -4.3447, 2.3068, -4.3328, -4.1574
26832.451171875, 71.2529904082726, -7.7542, -6.8511, -3.3997, 2.0023, -7.8391, -3.4686
26860.241943359375, 71.25131857153981, -5.7747, -6.4276, -3.8933, 3.9567, -7.6354, -3.9980
26895.427978515625, 71.2276280899033, 0.8640, -8.5262, -5.6592, 10.5182, -10.2473, -5.7272
26930.37890625, 71.28545242460281, 10.5861, -7.4783, -1.6179, 20.0679, -9.9573, -1.2715
26961.35595703125, 71.30056893072383, 17.6199, -4.7918, -2.6133, 26.7061, -8.1889, -1.1745
26995.830810546875, 71.36658313480821, 12.9771, 1.3116, -0.3791, 21.5921, -2.8786, 1.7174
27030.234130859375, 71.49181231851365, 4.0415, 5.1943, 0.0645, 12.3879, 0.5932, 2.3747
27063.510009765625, 71.4933671919848, 1.0324, 7.5626, -2.6077, 9.2874, 2.8525, -0.1909
27097.98193359375, 71.50987933891844, -2.2534, 8.2250, -2.6571, 6.1007, 3.6881, -0.2496
27130.4228515625, 71.5946213144161, -4.8617, 8.0369, -2.0613, 3.6310, 3.7365, 0.2948
27163.5439453125, 71.63651226134772, -6.4501, 8.2468, -2.0790, 2.1054, 4.0592, 0.2530
27195.2119140625, 71.66907369809141, -5.9404, 6.8235, -1.5062, 2.7173, 2.7295, 0.6044
27233.237060546875, 71.71531195931308, -4.5970, 4.3261, 1.8127, 4.2214, 0.2797, 3.2380
27260.56298828125, 71.70946956745735, -1.6689, 5.3804, 4.0040, 7.2556, 1.4611, 5.0823
27296.39599609375, 71.71241604091682, 7.7395, -0.5122, 0.8529, 16.8755, -3.9998, 1.5878
27329.225830078125, 72.35260356738391, 15.9648, 1.7665, -0.2050, 25.2334, -1.4328, -0.0374
27367.206787109375, 72.25558760004746, 8.6860, 0.7588, 1.8928, 18.0231, -2.2384, 1.8173
27396.216064453125, 72.55564171434614, 2.7391, -0.6676, 3.0689, 12.1567, -3.3884, 3.3448
27433.445068359375, 72.60003454696249, -0.2901, -2.3316, 0.7991, 9.1858, -4.7103, 1.6478
27464.719970703125, 72.6322578448821, -3.0837, -2.3566, -2.1067, 6.4247, -4.4601, -0.9505
27497.623046875, 72.6302963265156, -5.7573, -3.3956, -3.3409, 3.8375, -5.1188, -2.2725
27533.011962890625, 72.3357657714651, -8.0312, -5.1546, -3.2545, 1.6507, -6.5429, -2.5444
27565.712158203125, 72.22197605720007, -8.9742, -7.1150, -4.0063, 0.7290, -8.4463, -3.5105
27598.3232421875, 72.09544558373338, -7.3764, -7.8061, -4.2641, 2.3233, -9.2362, -4.0610
27632.147216796875, 71.878071249038, 0.0857, -10.9687, -2.2619, 9.7170, -12.8025, -2.0484
27664.9599609375, 71.62503773067162, 11.0597, -8.7763, -3.6666, 20.5325, -11.2255, -3.0052
27700.14892578125, 71.56683950213139, 21.2834, -8.8446, -1.8192, 30.5508, -11.9121, -0.8829
27731.179931640625, 71.50569850625578, 14.3599, 3.2338, -0.9812, 23.2703, -0.7428, -0.0003
27768.198974609375, 71.46874999197782, 4.3046, 6.5421, -0.5253, 12.9365, 1.9912, 0.4500
27798.581787109375, 71.50532951848469, -0.6206, 7.5343, -2.0817, 7.8832, 2.7738, -0.9894
27833.05615234375, 71.53618068583295, -2.4162, 9.8146, -3.8153, 6.0252, 5.0208, -2.4247
27867.288818359375, 71.59281353481101, -5.1929, 10.8276, -3.8567, 3.2681, 6.1158, -2.3138
27900.590087890625, 71.6274777470449, -9.3055, 10.0044, -1.7692, -0.7908, 5.3896, -0.2285
27932.748046875, 71.65542028581451, -10.8281, 8.0346, 0.3705, -2.2203, 3.6084, 1.9466
27968.005859375, 71.66737342866925, -6.7401, 7.9646, -0.8522, 2.0282, 3.8057, 0.5592
28000.78173828125, 71.66333705317763, -2.8589, 7.2998, 1.3180, 6.2088, 3.6381, 2.0529
28032.72900390625, 72.02490890618978, 9.8650, 4.8625, 6.2074, 19.2356, 2.0654, 6.9405
28067.140869140625, 71.89444169796641, 19.3937, 3.1041, 3.8709, 28.9083, 0.8713, 4.6810
28102.601806640625, 71.62578176333828, 11.4663, -2.0320, 6.3072, 21.1504, -3.3977, 7.0310
28135.60302734375, 71.31172044899002, 5.8360, -5.7559, 1.4880, 15.5578, -6.2683, 2.6686
28168.381103515625, 70.14915644906371, 6.0682, -6.5928, -3.6259, 15.7326, -6.5446, -1.9622
28202.756103515625, 70.57218553470511, 0.1852, -6.0663, -6.7835, 9.8496, -5.8375, -5.1348
28235.1689453125, 69.86579939598859, -7.7231, -7.4313, -4.4468, 1.9781, -7.0903, -3.0534
28267.090087890625, 69.09342566536122, -8.1344, -7.7346, -3.0656, 1.5640, -7.4487, -1.6409
28301.85400390625, 69.09264097966376, -6.1835, -8.0092, -3.4534, 3.5011, -8.0593, -1.9115
28335.699951171875, 69.0884793142858, -3.4877, -7.3280, -2.1125, 6.2358, -7.9266, -0.9884
28368.93896484375, 69.1976477713937, -0.5791, -7.0617, -1.8599, 9.1131, -8.4033, -1.2034
28401.83203125, 70.09203445727961, 6.3272, -7.4758, -3.9452, 15.9137, -9.5023, -3.5397
28433.507080078125, 70.18938653070673, 18.2092, -5.3123, -3.6497, 27.5571, -8.2702, -3.4550
28469.835205078125, 70.1158750939261, 17.1540, 2.4613, -3.1118, 26.1368, -1.4726, -3.0436
28502.719970703125, 70.39342826944085, 10.1316, 6.1646, -1.4471, 18.8115, 1.6007, -1.4298
28536.25390625, 70.89025223676265, -0.2908, 8.9572, -0.2366, 8.1368, 3.9430, -0.1857
28571.6650390625, 71.14433673471726, -5.3826, 9.5643, 0.5384, 2.9199, 4.3681, 1.0268
28602.844970703125, 71.39764238375106, -7.6637, 10.9194, -0.0463, 0.6449, 5.8097, 0.9671
28637.437255859375, 72.27624647352495, -8.8197, 10.0878, -0.5305, -0.3994, 5.2253, 0.7443
28671.385009765625, 72.23677254699652, -9.8850, 9.3611, 0.8892, -1.3114, 4.7504, 2.0749
28704.07080078125, 72.26670566534523, -7.5592, 8.4420, 0.9144, 1.2224, 4.1292, 1.5877
28736.446044921875, 72.29914920002997, -1.9986, 7.7391, 7.5275, 7.0535, 3.9989, 7.0349
28772.68798828125, 72.26056702863185, 4.8942, 2.4380, 5.3573, 14.2757, -0.3678, 4.8228
28802.110107421875, 72.04531518369127, 20.8901, 2.9874, -2.5077, 30.4237, 0.6901, -2.4562
28840.52783203125, 71.71872733067691, 9.3142, -3.1965, -0.5652, 19.0083, -4.6726, -0.6891
28868.969970703125, 71.54735060414365, 2.7028, -5.2370, 1.9485, 12.4359, -6.4346, 1.8976
28907.551025390625, 71.38300062046551, -3.3003, -3.9245, -0.2265, 6.4833, -4.4389, 0.2052
28937.56298828125, 70.5024944735255, -3.7835, -4.2133, -1.7136, 5.9994, -4.5313, -1.1106
28974.098876953125, 70.29598956747164, -4.0515, -7.5306, -4.1883, 5.7121, -7.3940, -3.2813
29004.85791015625, 70.18341235114379, -4.4684, -8.1360, -3.8753, 5.2967, -7.9803, -2.9872
29040.453857421875, 70.16439069400046, -5.9346, -10.0605, -3.0504, 3.8608, -10.2017, -2.6034
29070.987060546875, 70.02448773888023, -3.7296, -10.1827, -2.6667, 6.0680, -10.5891, -2.5536
29107.160888671875, 70.36096053886351, 4.1125, -7.9028, -4.1356, 13.7893, -9.3586, -4.7772
29140.56005859375, 69.9831460408444, 14.2462, -6.4375, -4.0592, 23.7990, -8.5801, -4.6298
29173.25, 70.46327270208613, 19.9361, 1.9543, -4.7450, 29.1790, -1.3219, -4.8149
29206.2041015625, 70.38415033472224, 11.3348, 8.9874, -1.9086, 20.1716, 4.7440, -1.6351
29240.73193359375, 70.60526048981122, 1.4822, 9.8825, 0.2394, 10.0571, 5.1588, 0.8103
29272.319091796875, 71.11384082457764, -2.3574, 9.0138, 0.3193, 6.0817, 4.1010, 1.2227
29308.110107421875, 71.26934418786514, -4.6633, 9.7687, -2.7198, 3.5873, 4.7642, -0.9726
29341.05712890625, 71.39263365725778, -7.1828, 9.5460, -2.7581, 1.1504, 4.6796, -1.0130
29370.546142578125, 71.50631682461247, -7.8835, 9.4721, -1.8890, 0.5071, 4.6757, -0.2271
29410.886962890625, 71.6162762858435, -6.7670, 8.3574, -0.5578, 1.8708, 3.8626, 0.6065
29439.10400390625, 71.7175105470612, -4.8606, 7.3589, 1.1174, 3.9005, 3.0266, 1.9207
29477.442138671875, 71.75936813889045, 4.4753, 1.6364, 3.8159, 13.5825, -1.9957, 4.0101
29505.748046875, 72.06472247355202, 11.5758, -2.5687, 2.7598, 20.7878, -5.9242, 2.9856
29542.050048828125, 72.05462316742347, 12.9470, -0.1304, -0.4631, 22.2902, -3.1051, -0.2999
29574.423095703125, 72.16907060413737, 4.5864, -1.7991, 2.0740, 13.9973, -4.5547, 2.1892
29608.507080078125, 72.15818571433996, -0.6366, -1.5207, 1.3352, 8.8629, -3.9367, 1.6388
29640.5380859375, 72.28096537146061, -5.0134, -1.9887, -1.0701, 4.5497, -4.1077, -0.5938
29675.56201171875, 72.02927134698798, -7.9657, -2.3439, -2.9890, 1.6550, -4.1869, -2.5242
29708.236083984375, 71.7677423021092, -9.0655, -2.8687, -3.5219, 0.6250, -4.3286, -3.1568
29741.75, 71.61967435108608, -5.7433, -5.2394, -4.1305, 3.9884, -6.4069, -3.8128
29775.16015625, 71.48126002456019, -2.6984, -7.5313, -4.6145, 7.0425, -8.6435, -4.8334
29810.15185546875, 71.33738810620306, -1.0864, -6.7990, -2.6399, 8.5635, -8.0842, -3.8223
29840.9140625, 71.15975462048421, 6.2266, -9.0006, -4.9999, 15.7621, -10.7504, -6.4778
29876.68896484375, 71.04716208170525, 17.6956, -8.4658, -5.3410, 27.1809, -10.7317, -6.3732
29907.64013671875, 71.03276883273341, 20.0059, -3.1523, -4.0816, 29.2244, -6.4799, -4.4231
29944.618896484375, 71.2201694939959, 7.7479, 4.5071, -1.0608, 16.5980, 0.2889, -1.2950
29975.63916015625, 71.36921314300422, -1.4046, 7.8107, -0.2399, 7.1778, 3.0674, -0.3581
30012.31298828125, 71.32802768178117, -5.0103, 9.2533, -1.0640, 3.3839, 4.2066, -0.5749
30042.8798828125, 71.40785026954136, -7.8727, 11.3739, -2.1300, 0.4800, 6.3475, -1.0633
30077.705078125, 71.54174986138065, -9.6342, 11.2500, -2.4951, -1.2005, 6.4061, -1.2381
30110.64306640625, 71.62505314300864, -11.1793, 10.0553, -1.1917, -2.5370, 5.5659, -0.0403
30144.17919921875, 71.62568262870074, -8.5059, 8.1294, -0.1145, 0.4311, 4.1803, 0.7242
30177.964111328125, 71.58706673480262, -2.4775, 5.4367, 0.4710, 6.7078, 2.0282, 0.8984
30209.951904296875, 71.47580138784336, 2.9412, 2.4714, 2.2647, 12.3840, -0.1745, 2.3189
30245.31201171875, 71.34024122456997, 19.2870, 1.5552, -0.7482, 28.8693, -0.5296, -0.6834
30277.9912109375, 71.1713043265959, 15.9674, 4.8536, -0.4704, 25.6112, 3.0740, -0.4773
30313.382080078125, 71.06087414700056, 7.9085, -1.7105, 5.0807, 17.6231, -3.0490, 5.1517
30343.869140625, 70.61050020416063, 3.2140, -4.2120, 1.6152, 12.9694, -5.1384, 1.9957
30380.611083984375, 70.25513944499816, -0.8864, -2.0554, -1.3497, 8.8964, -2.6472, -1.0078
30410.760009765625, 70.18055738786579, -5.9706, -2.7714, -2.5145, 3.8306, -2.9483, -2.2380
30446.375, 70.17013991847391, -5.7733, -6.0822, -3.1861, 4.0205, -5.8930, -2.7201
30479.458251953125, 70.48182591842523, -3.9433, -7.7678, -4.1150, 5.8414, -7.4952, -3.5181
30512.10009765625, 70.18183680826156, -4.7687, -8.5593, -3.1814, 5.0328, -8.4490, -2.8834
30547.65673828125, 70.2139537796818, -4.6546, -8.0762, -1.0564, 5.1444, -8.4400, -1.1880
30579.8828125, 70.06034063681163, 0.4978, -8.2828, -2.0346, 10.2412, -9.3619, -2.3041
30609.301025390625, 70.45645566535227, 9.9532, -7.1913, -2.2323, 19.6082, -8.8988, -2.4183
30648.22607421875, 70.42937939596062, 20.0781, -5.4352, -2.0886, 29.4888, -8.1904, -1.9549
30676.56005859375, 70.51034573880494, 14.4355, 3.7004, -1.8143, 23.4529, -0.1419, -1.5063
30707.087890625, 70.9874091593067, 6.8482, 7.9410, -1.7082, 15.5315, 3.4328, -1.0397
30742.823974609375, 71.18372099604636, -1.4624, 8.6940, -2.2925, 6.9486, 3.8747, -0.8091
30783.43408203125, 71.37159826132267, -4.4688, 9.0098, -3.8148, 3.8578, 4.3708, -1.5086
30811.55615234375, 71.53594600823995, -7.3893, 8.7582, -3.3925, 1.0214, 4.4960, -0.6975
30848.64697265625, 72.38866894697458, -9.8816, 8.2369, -4.3485, -1.2664, 4.3714, -1.7015
30878.18505859375, 72.31148831841081, -10.5689, 8.3947, -2.3646, -1.6602, 4.9350, -0.1655
30914.75, 72.60099137145264, -8.7835, 6.5533, -0.3460, 0.3542, 3.4601, 1.4163
30947.54296875, 72.57228783677171, -1.3387, 5.3177, 2.1985, 8.0167, 2.6405, 3.4149
30983.02099609375, 72.46158170614069, 5.5790, 5.0868, 4.4410, 15.1010, 2.9881, 5.4887
31015.10205078125, 72.49892604084273, 14.5362, -0.3679, 1.0445, 24.2114, -1.8419, 1.6679
31048.2109375, 72.26869514292301, 17.5878, 3.6917, -2.0797, 27.3445, 2.7035, -2.0358
31082.2099609375, 72.07941226943974, 8.3789, -1.2494, 2.2656, 18.1608, -1.9257, 2.1003
31114.718994140625, 71.93201461231104, 2.7994, -4.0020, 3.0237, 12.5978, -4.3383, 2.8051
31148.73291015625, 71.73221277558034, -1.9338, -4.1934, -1.0330, 7.8670, -4.2192, -1.3705
31182.550048828125, 71.50808189393668, -7.1687, -4.0337, -2.8078, 2.6209, -3.8491, -3.3552
31216.4619140625, 71.28175535517262, -10.0539, -4.7758, -3.3507, -0.2735, -4.4546, -3.9929
31249.384033203125, 71.15411706129106, -9.3666, -7.3500, -3.1603, 0.4030, -6.9760, -3.9256
31283.14501953125, 71.03775817149446, -7.8835, -9.0178, -3.0733, 1.8349, -8.7661, -4.3621
31316.68212890625, 70.93673822864348, -2.7399, -7.2727, -3.8471, 6.8084, -7.2568, -6.0835
31350.243896484375, 70.85230104497258, 4.8016, -8.1020, -5.6847, 14.0692, -8.6474, -8.8446
31383.177978515625, 70.8480741633415, 13.9552, -6.9985, -10.6050, 23.0391, -8.1198, -14.1258
31415.82177734375, 70.81969873476133, 18.7246, 3.7220, -9.7217, 27.7460, 1.7493, -13.0222
31448.56005859375, 70.84626150211875, 7.5201, 5.6988, -2.0992, 16.4455, 2.8672, -5.0129
31481.797119140625, 70.99926935520298, -0.2144, 6.7695, 0.5340, 8.6790, 3.4508, -1.9284
31518.4169921875, 70.99558950214079, -4.5210, 7.4238, 1.7500, 4.4766, 3.9118, 0.0528
31550.76904296875, 71.00665982867399, -6.7807, 7.2830, 0.7687, 2.3486, 3.7426, 0.2279
31584.505859375, 71.12524516745407, -7.3726, 7.4013, -0.5848, 1.8413, 4.0435, -0.5878
31618.636962890625, 71.17329305316282, -8.6281, 7.3801, 0.4276, 0.6618, 4.2454, 0.2239
31651.6650390625, 71.10735201641204, -7.9955, 5.9819, 2.0309, 1.3475, 3.1779, 1.0226
31685.512939453125, 71.09406807354758, -5.2688, 4.3718, 6.3951, 4.1099, 1.9902, 4.8022
31714.43212890625, 71.01700413067178, 2.6464, 5.5200, 3.7806, 12.1374, 3.4309, 2.4666
31750.879150390625, 71.0349569470102, 13.5444, 3.6542, -1.9353, 23.2009, 2.2052, -2.8431
31785.634765625, 70.96267606536745, 17.0117, 3.5968, -4.3141, 26.7494, 2.5334, -4.7800
31819.140869140625, 70.87332528167877, 9.8787, 0.9262, -1.9258, 19.6488, 0.0953, -2.0877
31850.68408203125, 70.86273502046151, 1.9426, -4.5004, 0.2361, 11.7295, -5.0263, 0.5697
31885.97802734375, 70.47710937966053, -1.4901, -4.8236, -1.4964, 8.2747, -5.0920, -0.6318
31918.99609375, 70.13701248992618, -4.5113, -5.6727, -3.7343, 5.2445, -5.7224, -2.7378
31954.119873046875, 70.12985790216374, -6.5878, -6.6384, -2.6011, 3.1861, -6.5903, -1.8015
31986.070068359375, 70.12334516746837, -7.3985, -7.4172, -2.2483, 2.3843, -7.5157, -1.5730
32022.007080078125, 70.43662144496987, -5.4407, -6.6411, -3.3725, 4.3355, -7.3304, -3.0245
32050.840087890625, 70.20551171437312, -2.8520, -7.2761, -2.3728, 6.9082, -8.2156, -2.2076
32087.7919921875, 70.31715996740068, 2.3853, -10.0595, -2.4898, 12.0357, -11.8001, -2.5988
32118.025146484375, 70.62797906125842, 16.0076, -7.0685, -2.9285, 25.5026, -9.5134, -3.1232
32154.27294921875, 70.84957921643577, 21.0516, -4.0216, -1.7334, 30.3064, -7.2636, -1.6450
32187.746826171875, 71.12572513482863, 14.4612, 4.7181, -1.5995, 23.2784, 0.4669, -1.0041
32220.988037109375, 71.38889018785049, 0.9088, 8.3006, -2.3573, 9.3989, 3.4354, -1.7099
32253.620849609375, 71.4834701878385, -5.0823, 9.6770, -1.9280, 3.2358, 4.5414, -1.1503
32289.26904296875, 72.2550347674002, -7.4468, 11.7127, -3.3350, 0.7831, 6.5278, -2.0871
32320.098876953125, 72.27005464495141, -10.0161, 11.1449, -3.8924, -1.6390, 6.2408, -2.4982
32353.615234375, 72.47466635104283, -11.4250, 10.4671, -2.1553, -2.7982, 5.9797, -0.8860
32390.2900390625, 72.2471003755599, -7.4579, 5.3061, 0.6828, 1.8097, 2.1404, 1.1928
32420.937744140625, 72.22707534699474, -3.3879, 1.0594, 3.7132, 6.0980, -1.4275, 3.7583
32452.72802734375, 72.09155167353259, 2.9637, 4.5196, 5.2973, 12.5218, 2.3273, 5.3798
32487.760009765625, 72.20035726523362, 18.3129, -0.6324, 5.3153, 27.9677, -2.1739, 6.0762
32522.443115234375, 71.8673261633086, 14.5289, 0.8053, 1.2664, 24.2482, -0.4039, 1.7606
32554.871826171875, 71.67402902862862, 6.2862, -0.8262, 3.1431, 16.0280, -1.9255, 3.3876
32591.214111328125, 71.51655890618127, 0.7396, -1.5812, 0.5546, 10.5146, -2.2588, 0.9557
32622.559814453125, 71.37559685722626, -1.4024, -2.1623, -0.6438, 8.3805, -2.6650, -0.1829
32655.85205078125, 71.40876839195529, -5.6683, -4.1768, -1.7619, 4.1319, -4.4579, -1.5462
32690.799072265625, 71.36198365727395, -9.8997, -5.0733, -1.1452, -0.1022, -5.0606, -1.5697
32723.0029296875, 71.26435207358539, -7.3142, -6.5357, -2.4689, 2.4798, -6.5434, -2.9676
32756.076171875, 71.2487065878587, -2.7083, -8.9804, -2.4795, 7.0672, -9.3546, -3.1647
32791.822998046875, 71.36414629397942, 0.2265, -12.0756, -3.4192, 9.9563, -12.9290, -4.2980
32822.923095703125, 71.40457857969452, 9.8595, -7.0975, -5.3742, 19.5382, -8.4234, -6.2318
32855.64794921875, 71.35823962459006, 18.7944, -6.7840, -5.3040, 28.4442, -8.4041, -5.9578
32892.01806640625, 71.34798798378121, 12.0907, 3.7289, -2.3697, 21.4658, 0.8519, -2.3490
32923.197998046875, 71.57701201647716, 5.2599, 5.1334, -0.9083, 14.5282, 1.9317, -0.7738
32959.150146484375, 71.60223839199337, -4.3528, 8.1997, -1.9130, 4.7043, 4.5409, -1.0455
32989.0859375, 71.9707938613102, -5.6310, 9.0574, -2.4362, 3.3912, 5.3895, -1.2887
33025.81494140625, 71.97737457967946, -13.7010, 8.6121, -3.4888, -4.5099, 5.5429, -1.9806
33056.933837890625, 72.15263976331865, -15.1141, 10.1945, -2.5880, -5.7009, 7.7966, -1.2423
33091.445068359375, 71.98171500411927, -10.5133, 8.2379, -1.5121, -0.9539, 6.4860, -0.2008
33126.098876953125, 71.67885142046909, -2.4892, 5.0634, 1.9841, 7.2059, 4.0447, 3.0504
33159.31298828125, 71.54599496332592, 8.8324, 6.4225, 2.9166, 18.6100, 6.1559, 3.6230
33191.861083984375, 71.35825871024875, 21.7462, 0.1695, 2.0394, 31.5300, 0.4720, 2.6371
33226.56396484375, 71.09107098775947, 18.4242, 2.2830, 1.3435, 28.2076, 2.7879, 1.7915
33256.614013671875, 70.0765113960569, 7.8252, -1.1336, 4.8462, 17.6064, -0.5376, 5.2261
33295.205810546875, 70.60211300415303, 2.9287, -2.3926, 2.4904, 12.6969, -1.7871, 3.1110
33323.51416015625, 70.37524792659173, -0.7343, -2.7880, -2.0145, 9.0330, -2.2321, -1.3354
33361.9111328125, 70.46428106128963, -5.6958, -3.5598, -4.0619, 4.0923, -3.0444, -3.7498
33390.071044921875, 70.35673742865929, -8.5859, -3.5961, -2.5565, 1.2086, -3.1253, -2.6830
33428.9248046875, 70.22167289802141, -9.2362, -5.2738, -2.3441, 0.5637, -5.0030, -2.5895
33456.453125, 70.30856237554788, -7.9341, -7.2044, -3.1273, 1.8670, -7.1863, -3.4553
33496.8369140625, 70.3474902939052, -3.4714, -7.4054, -3.0973, 6.2804, -8.1430, -3.8244
33524.001953125, 70.8027063592861, 2.3321, -7.9883, -4.3774, 11.9887, -9.4490, -5.2651
33564.372802734375, 70.9431551348043, 13.0955, -4.0700, -2.2276, 22.6301, -6.1422, -3.2108
33588.97998046875, 71.10349626951613, 16.0100, -3.7331, -2.0055, 25.4917, -6.0888, -2.8534
33632.387939453125, 71.21885444911574, 12.2179, 5.7219, -3.6029, 21.3795, 2.2625, -4.1203
33656.179931640625, 71.3896407184772, 0.8764, 7.2165, -0.1510, 9.8786, 3.3384, -0.4525
33699.157958984375, 71.44314560827779, -5.6662, 6.7272, 0.3248, 3.2440, 2.6712, 0.8968
33722.827880859375, 72.17612115107914, -7.6025, 7.5580, -1.3406, 1.2902, 3.6173, -0.0911
33765.5361328125, 72.1868517388242, -8.9590, 7.7008, -2.6349, 0.0676, 4.0666, -1.4174
33793.126953125, 72.13993697149556, -9.6247, 8.2985, -0.5433, -0.4588, 4.8710, 0.0964
33829.583984375, 72.04493208985136, -9.3462, 7.4688, 3.2639, -0.1499, 4.0785, 3.5874
33862.190185546875, 71.99425067760885, -2.7679, 6.1169, 6.9819, 6.3997, 2.7239, 7.7642
33895.677978515625, 71.79652027761372, 5.0356, 3.0847, 4.8914, 13.9413, -0.2942, 7.2242
33928.367919921875, 71.71025046537468, 15.4402, -0.0950, 0.4618, 24.3389, -3.1339, 3.2455
33961.91796875, 71.84551843277133, 13.0303, 1.0924, 2.5076, 22.1916, -1.6487, 4.6822
33994.066162109375, 71.53909242456214, 3.9916, 2.0367, 2.2285, 13.2203, -0.4550, 4.4175
34029.889892578125, 71.62290582862926, 0.0211, -0.8371, 1.0102, 9.3149, -2.8069, 3.4423
34061.697998046875, 71.7226445959894, 2.2454, -3.7201, -1.2236, 11.6316, -4.9512, 1.3364
34096.906982421875, 71.57970102866442, -1.0359, -3.5405, -4.1807, 8.3802, -4.3375, -1.5589
34128.89306640625, 71.3181729878439, -4.7404, -4.2554, -4.9258, 4.7190, -4.7182, -2.3810
34165.386962890625, 71.26201728173378, -5.7465, -8.0945, -2.9028, 3.8035, -8.2199, -0.6776
34196.93212890625, 71.22081555927583, -3.7796, -11.4598, -3.7430, 5.7295, -11.7127, -1.3587
34230.935791015625, 71.10861080007959, 0.2715, -9.6184, -4.8248, 9.7184, -10.3174, -2.2875
34262.99609375, 71.0908162368165, 4.0350, -10.6178, -2.8220, 13.3953, -12.3081, -0.4347
34299.583984375, 71.10632503682506, 10.5600, -8.1807, 0.8858, 19.7264, -10.9539, 2.9966
34327.533935546875, 71.14749816337248, 18.0318, -4.4960, 1.1528, 26.6385, -8.4707, 3.6621
34357.373046875, 71.2249938450248, 12.4325, 5.9052, 2.6660, 20.1626, 0.7424, 5.7902
34400.94091796875, 71.49480209805398, 5.4105, 6.8121, 1.7054, 12.6376, 1.1597, 5.1679
34428.02978515625, 72.197588783695, 1.9739, 7.2249, -2.5203, 9.1382, 1.3479, 0.6895
34467.067138671875, 72.25502349393872, -4.5653, 11.7127, -3.7274, 2.6686, 5.7177, -0.9167
34496.2548828125, 72.76767293865375, -9.8289, 12.6173, -3.3845, -2.4816, 6.7084, -0.6877
34532.123779296875, 72.56624863665193, -11.9960, 12.4235, -3.9763, -4.3551, 6.8274, -1.4329
34565.712158203125, 72.4776835019394, -8.9935, 10.5618, -1.8073, -0.8092, 5.5944, 0.3171
34599.697998046875, 71.94668054699267, -4.7763, 7.9716, -0.3446, 3.9774, 3.7137, 0.8447
34631.366943359375, 71.63874712658726, 0.3056, 3.9983, 4.5215, 9.3947, 0.3349, 4.8929
34665.058837890625, 71.41223617148174, 9.8846, 1.6142, 3.2772, 19.2406, -1.2784, 3.7956
34699.4560546875, 71.2466488898265, 18.5867, -3.5157, 0.2813, 28.1019, -5.7938, 0.9447
34732.60009765625, 70.54100207353716, 15.0530, -0.8052, -1.2617, 24.6646, -2.7210, -0.9192
34766.784912109375, 70.62549106128606, 3.5548, -1.8792, 1.5525, 13.2292, -3.4382, 1.9357
34799.117919921875, 70.15381689804165, -0.3787, -3.2677, 0.7686, 9.3157, -4.4424, 1.6680
34833.76806640625, 69.71469909395238, -1.6617, -4.6552, -2.5685, 8.0471, -5.5507, -1.5154
34866.576904296875, 69.30288208170255, -6.2714, -6.2197, -4.0500, 3.5023, -6.8268, -3.5231
34900.22900390625, 69.13454522455812, -7.9224, -6.7675, -1.6567, 1.8709, -7.2110, -1.4020
34933.89892578125, 69.35777760002726, -3.5471, -9.0457, -4.7265, 6.2336, -9.6588, -4.3627
34967.953125, 69.20759811433864, -1.7936, -9.0487, -2.2599, 7.9600, -10.0676, -2.2580
34999.387939453125, 69.07155277558262, 0.3369, -7.3678, -0.7014, 9.9739, -9.1099, -1.2134
35036.09912109375, 69.14165111843725, 10.9864, -6.6017, -1.8535, 20.4653, -9.0386, -2.4708
35065.007080078125, 69.34181811433076, 20.3599, -4.3532, -2.2014, 29.6206, -7.5757, -2.3623
35100.10986328125, 70.28506962461573, 15.3942, 4.0945, -2.3205, 24.2160, -0.1700, -1.9187
35134.80419921875, 69.94724025307312, 2.9568, 6.4620, -0.6772, 11.4338, 1.5820, 0.0265
35163.924072265625, 70.04704671839465, -1.8956, 6.9022, -1.7918, 6.3978, 1.7678, -0.7777
35203.51708984375, 70.79437255514983, -4.8478, 8.9709, -2.3189, 3.3106, 3.7400, -0.8193
35229.536865234375, 70.89271041643752, -7.7934, 11.1089, -3.9704, 0.3886, 6.0111, -2.1709
35268.9150390625, 71.01227401644896, -9.8587, 10.8853, -2.5721, -1.4911, 6.0346, -0.9520
35302.457275390625, 71.05549258787407, -10.3460, 9.6677, 0.1548, -1.7355, 5.1622, 1.4697
35335.0771484375, 71.06608367358494, -4.3914, 7.1548, 1.0300, 4.4824, 3.0905, 1.9822
35366.845947265625, 71.09185271848729, 0.8281, 5.0641, 3.1839, 9.9294, 1.4525, 3.7264
35401.1259765625, 71.07759722460649, 10.4417, -0.8495, 2.4409, 19.8199, -3.7025, 2.7243
35436.73486328125, 70.87626187763671, 21.3835, 2.8198, -3.6214, 30.8719, 0.3491, -3.4282
35467.376953125, 70.81832834293698, 9.9772, -1.3950, 1.9733, 19.5403, -3.5672, 1.9781
35503.4970703125, 70.8345117143678, 2.6492, -3.1677, 3.9723, 12.2773, -5.0094, 4.2506
35536.43994140625, 70.56825010615039, -2.2069, -2.3043, 0.3079, 7.4687, -3.7698, 0.9438
35571.494873046875, 70.53673640003423, -5.9775, -2.8343, -2.2951, 3.7402, -3.9437, -1.5842
35601.924072265625, 70.23933896336928, -7.9194, -4.1586, -2.7164, 1.8467, -4.8297, -2.1295
35636.033935546875, 70.22040610622923, -8.3850, -5.8357, -2.6436, 1.4011, -6.2424, -2.1548
35669.575927734375, 70.06161979604327, -7.6709, -8.7595, -4.0101, 2.1298, -9.0360, -3.8074
35702.426025390625, 70.39309075926138, -5.5435, -10.0712, -1.7996, 4.2479, -10.4194, -2.2199
35738.2119140625, 70.30109862864975, 1.8117, -10.3713, -3.2700, 11.5607, -11.1785, -3.9597
35767.43310546875, 70.23635861230426, 12.5858, -6.9120, -5.4764, 22.2849, -8.2308, -6.0741
35805.854248046875, 70.6269789877986, 21.3121, -6.4891, -4.0362, 30.8574, -8.7321, -4.2015
35836.250244140625, 70.63449062861804, 14.6622, 5.1711, -1.8039, 23.9193, 1.9378, -1.6547
35871.85888671875, 71.05480665310111, 6.2175, 6.3928, -1.1606, 15.2597, 2.6176, -0.7658
35904.044921875, 71.25814372255817, 0.3410, 6.9703, -1.9372, 9.2056, 2.8448, -1.1824
35936.885009765625, 71.3504328327582, -4.3231, 8.6063, -2.8904, 4.4109, 4.3173, -1.6683
35971.494140625, 71.4689638368371, -8.0724, 9.0939, -2.4665, 0.6343, 4.8082, -1.0537
36005.68505859375, 71.5546288899045, -10.8134, 9.1580, -1.1964, -2.0672, 4.9464, 0.1956
36039.781982421875, 72.2923614694232, -10.1338, 6.9755, 1.2099, -1.3071, 2.9166, 2.5461
36072.671875, 72.28425403268578, -4.1783, 6.6675, -0.6168, 4.7543, 2.7439, 0.3753
36105.38525390625, 72.17174489800702, -3.1527, 7.0190, 0.5452, 5.8733, 3.2651, 1.3258
36140.317138671875, 72.2767036327074, 11.8475, -1.2356, 1.7207, 21.1763, -4.1364, 2.5754
36173.68701171875, 72.29984475107966, 18.3912, -0.1026, -0.1121, 27.8242, -2.6788, 0.6301
36204.449951171875, 72.34951392660237, 15.3927, -0.8248, 0.7285, 24.8746, -3.2685, 1.2700
36239.402099609375, 72.08114303680232, 2.4696, -2.5321, 3.1020, 12.0535, -4.5668, 3.5253
36271.18408203125, 71.8861106858027, 0.8214, -3.4143, 2.1663, 10.4305, -5.2876, 2.7384
36307.68798828125, 71.77762703686713, -4.2059, -2.8157, -0.8555, 5.4380, -4.3993, -0.0440
36340.439208984375, 71.6910186695227, -7.0771, -3.5330, -2.0198, 2.5955, -4.9410, -1.2264
36374.25, 71.5965395919842, -7.9659, -4.7574, -2.3339, 1.7331, -6.0308, -1.6423
36407.396240234375, 71.55593371443447, -8.3151, -6.2949, -3.2942, 1.3928, -7.6091, -2.8473
36441.220947265625, 71.54425644912679, -6.8470, -7.4690, -2.9388, 2.8513, -8.9217, -2.9802
36475.533935546875, 71.54045989400007, -1.6546, -8.3271, -2.8801, 7.9582, -10.1992, -3.3912
36507.458984375, 71.5430662776737, 8.3344, -8.0472, -4.9876, 17.8546, -10.3807, -5.2880
36541.871826171875, 71.55236220420518, 23.9230, -9.6375, -3.7269, 33.2389, -12.6789, -3.3595
36573.47705078125, 71.60893865317321, 16.6356, 2.5914, -2.0452, 25.5057, -1.5214, -1.2855
36608.539794921875, 71.69510188579585, 5.3003, 6.5856, -0.1997, 13.7524, 1.7162, 0.8106
36642.098876953125, 71.73368175517814, -0.8405, 8.2289, -0.9589, 7.3487, 3.0388, 0.5142
36674.466064453125, 72.3762290530938, -4.3917, 9.1593, -2.7368, 3.6344, 3.8954, -0.7259
36709.256103515625, 72.33522812249127, -6.8072, 10.4580, -3.1621, 1.2721, 5.3281, -1.0219
36740.208984375, 72.62781786124837, -8.8853, 10.5922, -2.9866, -0.6686, 5.6273, -0.9854
36778.320068359375, 72.4028882041055, -9.6063, 9.8981, -0.7007, -1.2362, 5.1573, 1.2062
36807.85986328125, 72.50919560822338, -6.7809, 8.8402, -0.2577, 1.7551, 4.3399, 1.4899
36843.0869140625, 72.23019082454385, -0.8346, 6.0402, 1.9628, 7.9130, 1.8120, 3.2941
36874.8720703125, 72.41836522439415, 6.2267, 0.8306, 4.3160, 15.2621, -2.8473, 5.3183
36912.295166015625, 72.21837841638767, 16.1414, -2.1637, 3.3172, 25.4231, -5.2632, 3.9602
36939.800048828125, 71.93206693068637, 16.5664, -1.0423, 0.5263, 25.9723, -3.8060, 0.7723
36977.552001953125, 71.66381479189971, 5.3180, -3.5013, 3.2289, 14.7975, -5.9863, 3.5967
37009.525146484375, 71.64218471026437, 1.8237, -3.9616, 1.7507, 11.3511, -6.1251, 2.5986
37043.623046875, 71.62734085723648, -1.7996, -3.4207, -0.0732, 7.7532, -5.3585, 1.0039
37078.10595703125, 71.47801600825382, -6.8383, -2.7262, -3.3692, 2.7698, -4.4157, -2.3686
37110.495849609375, 71.29965742865448, -9.1321, -2.9569, -3.8975, 0.5255, -4.4350, -3.0517
37136.510009765625, 71.26242613885734, -9.3436, -4.2296, -4.3801, 0.3192, -5.6692, -3.5268
37182.81201171875, 71.25902351029254, -6.1963, -8.0750, -7.1069, 3.4551, -9.6723, -6.4220
37208.22509765625, 71.12912165722192, -1.8698, -9.0272, -5.5334, 7.7270, -11.0244, -5.2458
37245.843994140625, 71.0698610857955, 5.3507, -11.0860, -5.4501, 14.7954, -13.7191, -5.2651
37277.305908203125, 71.07279012253534, 20.4876, -7.9792, -2.9404, 29.6877, -11.3600, -2.6251
37311.69580078125, 71.10289645724279, 18.3845, 1.0404, -2.8622, 27.1444, -3.3577, -2.5616
37344.614990234375, 71.14968201644018, 8.5676, 6.7270, 0.3802, 16.9695, 1.6743, 0.6009
37379.14599609375, 71.15481497970808, -0.4667, 8.5618, 1.5103, 7.6567, 3.1002, 2.1048
37410.424072265625, 71.24305723278458, -3.1920, 8.1868, 0.2542, 4.8146, 2.6538, 1.4590
37446.261962890625, 71.29504443277803, -5.1315, 9.4942, -0.8154, 2.9046, 4.0894, 0.7271
37479, 71.331003542978, -8.0945, 9.9175, -1.4146, 0.1128, 4.7390, -0.0027
37512.410888671875, 71.32768597560441, -9.9093, 10.3372, -0.1814, -1.5149, 5.4009, 0.9750
37545.128173828125, 71.23021133068679, -9.2517, 8.2736, 1.1677, -0.6672, 3.6546, 2.2365
37580.294921875, 71.18530680007379, -2.3450, 5.3103, 1.9568, 6.4792, 1.0946, 2.6864
37613.321044921875, 71.20539327355019, 5.3521, 1.3908, 6.8367, 14.3815, -2.4241, 7.1319
37645.98681640625, 71.0877490368076, 21.1183, -6.0698, 1.7569, 30.2922, -9.5352, 1.7979
37679.137939453125, 71.02470145313688, 18.4051, -3.1739, -0.9180, 27.6026, -6.4986, -1.6409
37713.965087890625, 70.96482573884914, 6.5316, 1.2534, 0.2419, 15.6864, -2.1192, -0.7510
37747.572998046875, 70.93261028578446, 0.4917, -1.2788, 2.0168, 9.7179, -4.5837, 1.6622
37779.971923828125, 70.65761146945745, -2.5246, -0.7522, 0.3096, 6.7347, -3.9765, 0.5071
37814.865966796875, 70.46423343675964, -7.0406, 0.8680, -2.9791, 2.2784, -2.1554, -2.5482
37847.720947265625, 70.46143534696179, -10.1261, -1.0600, -4.1055, -0.7061, -3.7550, -3.6908
37878.93408203125, 70.81461344494795, -10.0477, -2.3803, -4.1817, -0.5665, -4.8553, -3.7914
37915.37109375, 70.96893362461472, -7.6891, -6.0885, -3.2172, 1.7876, -8.5642, -2.7345
37945.421142578125, 71.07850412257739, -3.7834, -7.5458, -4.2300, 5.6470, -10.2208, -3.9458
37983.615966796875, 71.16130195931932, 0.4115, -9.6059, -3.6415, 9.7125, -12.7125, -3.5373
38010.47509765625, 71.13627912665315, 6.0508, -8.7738, -4.1673, 15.1451, -12.4376, -3.9660
38048.802001953125, 71.25605097973379, 19.2531, -8.3837, -3.2364, 28.0548, -12.6876, -2.8156
38080.609130859375, 71.30398290626509, 16.8396, -2.3782, -2.2427, 25.2552, -7.3839, -1.7041
38109.755859375, 71.36685661239261, 10.8509, 3.1601, -1.7422, 18.8947, -2.4313, -1.2906
38150.48193359375, 71.46015720828422, 2.0657, 6.7447, -0.4331, 9.8912, 0.8511, 0.0114
38181.39404296875, 71.4959483266446, -2.3872, 9.2093, 0.0768, 5.3166, 3.1770, 0.7350
38216.111083984375, 71.52510933888449, -6.1506, 11.4635, 0.5125, 1.5302, 5.4342, 1.4204
38246.26806640625, 71.5999856980477, -9.4815, 11.6711, 0.8820, -1.7044, 5.7832, 1.8914
38279.12109375, 71.63875308579975, -10.3353, 10.2889, 2.3912, -2.4758, 4.5264, 3.4824
38315.419921875, 72.38573759186407, -10.1121, 9.3371, 2.0777, -2.1805, 3.7062, 3.3245
38348.19384765625, 72.41275035920769, -3.9887, 7.5327, 1.3221, 4.1893, 2.2345, 2.4273
38383.633056640625, 72.39556349390473, 1.3387, 4.4315, 2.6440, 9.7841, -0.4465, 3.6693
38416.991943359375, 72.34851718369909, 14.0470, -1.8101, 1.3181, 22.8362, -5.9939, 2.5082
38446.902099609375, 72.62539949385942, 19.9276, -2.2833, -0.5615, 28.9239, -6.1108, 0.2050
38484.9140625, 72.62730147753483, 8.5460, -3.2175, 3.8140, 17.6388, -6.8522, 4.3429
38516.437744140625, 72.34770565717498, 2.5347, -3.9467, 4.7224, 11.6482, -7.3870, 5.8525
38549.625, 72.38693042451382, -2.0139, -2.4539, 2.4434, 7.1064, -5.5700, 4.2545
38584.052001953125, 72.51332928980926, -5.2766, -1.4018, -1.1353, 3.8820, -4.2315, 0.9340
38617.843017578125, 72.28875561637118, -7.6174, -1.1172, -3.8717, 1.7256, -3.4502, -2.0182
38650.593017578125, 72.2799214204427, -6.7193, -3.0601, -3.7356, 2.8258, -4.7470, -2.2468
38685.0751953125, 72.27091139595595, -6.5635, -6.5267, -5.1745, 2.9966, -8.1231, -3.6824
38718.33203125, 72.37739716739631, -8.5365, -5.6481, -7.7621, 1.0385, -7.3065, -6.4431
38751.693115234375, 72.18645755923862, -1.6829, -8.2780, -5.3709, 7.9265, -10.0711, -4.5859
38785.196044921875, 71.95825111845116, 3.0712, -10.6767, -4.8952, 12.6098, -12.9353, -4.6042
38817.975830078125, 71.84062517563103, 13.1808, -9.4074, -4.3150, 22.5592, -12.2583, -4.0196
38847.81689453125, 71.75046404094005, 21.6196, -5.3404, -2.0329, 30.5228, -9.2838, -0.8698
38884.27392578125, 71.7221813960149, 15.0603, 2.3996, 0.2258, 23.4569, -2.4084, 1.8229
38920.572021484375, 71.82292787763689, 6.2400, 7.2849, 0.6339, 14.2243, 1.8495, 2.3306
38951.781982421875, 72.4727905469653, -0.5774, 8.3975, -0.3470, 7.1784, 2.7396, 1.6544
38986.21484375, 72.90589481624434, -2.4548, 8.3027, -1.6905, 5.1576, 2.6555, 0.8257
39019.313232421875, 72.89756716726143, -4.1715, 8.9300, -2.8821, 3.4702, 3.4168, -0.1656
39052.9560546875, 72.687089746919, -6.7620, 9.5492, -3.7051, 1.1369, 4.2663, -1.2827
39086.869140625, 72.64957393465284, -8.6701, 9.7719, -1.6093, -0.5577, 4.7125, 0.5728
39118.1171875, 72.4130683592121, -8.9568, 7.9646, -0.6068, -0.7192, 3.1153, 1.5832
39153.9619140625, 72.3966827755315, -5.0892, 7.0862, -0.2622, 3.3552, 2.5214, 1.7443
39185.35888671875, 71.96576388579211, -2.1526, 4.9891, 2.9418, 6.6515, 0.9689, 4.5216
39221.3759765625, 71.85815117563405, 6.6443, -0.3384, 5.4892, 15.7164, -3.6528, 7.1866
39252.30615234375, 71.7706848735873, 17.8349, -1.7563, 2.2201, 26.9864, -4.6180, 4.2769
39289.245849609375, 71.73108821235725, 14.7563, -1.8999, 1.6810, 24.0792, -4.3571, 3.4744
39320.092041015625, 71.69796841645142, 6.6013, -2.8604, 3.3963, 16.0356, -5.0139, 4.9856
39353.594970703125, 71.5727028327912, -0.3973, -2.0678, 1.1797, 9.1132, -3.8119, 2.8160
39387.469970703125, 71.53008465318432, -3.9102, -2.3972, 0.3021, 5.6894, -3.6244, 1.8874
39420.860107421875, 71.45048174703872, -6.3489, -5.2055, 0.1927, 3.2804, -6.1500, 1.7915
39455.048828125, 71.33712514293347, -8.0921, -5.2459, -2.7378, 1.5730, -5.9400, -1.2299
39486.429931640625, 71.27224254701409, -7.9255, -5.6657, -3.2755, 1.7632, -6.3454, -1.9200
39521.653076171875, 71.28106897150859, -6.9329, -7.2283, -3.7899, 2.8006, -8.0195, -2.8935
39556.094970703125, 71.27123799192697, -0.4447, -7.7258, -3.9812, 9.2916, -8.8966, -4.0508
39586.87109375, 71.30896922459824, 4.7928, -9.5042, -1.6210, 14.4028, -11.2082, -2.5778
39624.60107421875, 71.32762445725946, 20.9447, -7.2079, -4.6013, 30.3173, -10.0712, -4.9545
39652.101806640625, 71.37453166543453, 20.3296, -2.4472, -3.6169, 29.5638, -5.7476, -3.7038
39692.596923828125, 71.57235116746457, 5.5718, 5.8046, -0.3997, 14.2825, 1.3096, -0.0995
39721.008056640625, 71.61078272662948, 3.0100, 6.7494, -0.3720, 11.5965, 2.0379, 0.1236
39756.185791015625, 71.6140930613282, -1.4790, 6.9672, -2.0887, 6.8934, 2.0081, -0.8719
39789.2158203125, 72.17561826945801, -3.7707, 7.5765, -3.5967, 4.5180, 2.6041, -1.9402
39823.769775390625, 72.17662022864418, -8.9379, 9.7744, -3.6893, -0.5183, 4.9545, -2.2571
39854.070068359375, 72.41636961638132, -10.0117, 10.1100, -2.7875, -1.5344, 5.3563, -1.4811
39891.26708984375, 72.39143908578656, -10.9483, 7.9275, 0.4132, -2.3210, 3.3773, 1.4314
39924.244873046875, 72.42524586129463, -7.8258, 7.1631, 1.3919, 0.9924, 2.9154, 1.9974
39956.47802734375, 72.41602319190953, -1.3839, 5.7789, 3.0747, 7.6956, 2.0786, 3.2771
39991.159912109375, 71.89939106948162, 18.2613, -3.9070, 1.1342, 27.5932, -6.9176, 1.2827
40022.028076171875, 71.68659462864998, 23.0711, -3.8423, 0.0532, 32.4190, -6.8010, 0.2376
40058.9130859375, 71.54218186946964, 10.9851, -2.3273, 3.0204, 20.3615, -5.1784, 2.6664
40087.64404296875, 71.58505863683749, 4.8841, -2.6945, 5.7498, 14.2835, -5.4624, 5.3488
40126.7998046875, 71.5475065062506, -0.3150, -1.8252, 2.3974, 9.1963, -4.2139, 2.3791
40152.304931640625, 71.53775653890625, -3.1067, -1.3203, 1.0781, 6.4376, -3.5732, 1.1295
40195.221923828125, 71.5526048572754, -9.1320, -2.7739, -0.4445, 0.5216, -4.4981, -0.3720
40221.0361328125, 71.55036337972255, -9.7167, -2.8324, -0.6924, -0.0403, -4.4225, -0.6035
40261.0458984375, 71.52160158379476, -9.6800, -4.2752, -3.6671, 0.0328, -5.5981, -3.3806
40290.163818359375, 71.5178997470601, -7.9759, -6.3964, -4.0376, 1.7463, -7.6761, -3.9298
40327.157958984375, 71.5269880817593, -3.2893, -9.2618, -4.0980, 6.4054, -10.7063, -4.4098
40358.27490234375, 71.49070534705753, 8.0058, -10.6213, -5.8268, 17.6306, -12.4466, -6.2758
40392.705078125, 71.44146822051182, 23.1905, -11.1935, -4.9864, 32.6913, -13.6133, -4.7621
40425.56787109375, 71.4275418205102, 22.9762, -3.3256, -4.1631, 32.1037, -6.8010, -3.2799
40461.787109375, 71.58147375523927, 8.9309, 4.1850, -0.2591, 17.6894, -0.1505, 0.5543
40491.784912109375, 71.63139698787131, 2.1529, 7.6752, -0.9776, 10.6445, 2.8596, -0.0428
40528.39306640625, 71.62107168992159, -1.0254, 8.1396, -1.9278, 7.2603, 3.0773, -0.5528
40559.074951171875, 71.6658591103265, -6.0005, 8.2377, -1.1583, 2.2146, 3.1328, 0.4609
40593.255859375, 71.71875902868787, -8.8270, 9.5867, -1.7793, -0.6089, 4.4727, -0.2046
40626.0068359375, 71.70857485725823, -9.7863, 11.5245, -1.9341, -1.4856, 6.4992, -0.5148
40659.373046875, 71.7095375021634, -10.0927, 9.6748, 0.0563, -1.6512, 4.8457, 1.3179
40694.72607421875, 71.70755586950844, -7.6650, 8.7486, 0.8121, 0.9292, 4.1251, 1.7780
40727.587890625, 71.72622564909868, -2.1815, 7.5478, 2.1907, 6.6596, 3.3258, 2.6155
40761.473876953125, 71.70967502053858, 10.8282, 0.2520, 3.2545, 20.0042, -3.2025, 3.4493
40793.705078125, 71.65947489809571, 22.7706, -0.4239, -1.8314, 32.0959, -3.4572, -1.7413
40828.6201171875, 71.48991574703682, 15.4520, -1.0416, -1.0436, 24.8767, -3.7038, -1.5514
40860.335205078125, 71.47490905315483, 3.5544, -3.4051, 3.6882, 13.0578, -5.7868, 3.2600
40897.35888671875, 71.46322506132815, 2.6046, -3.8324, 0.9773, 12.2010, -5.8519, 1.0044
40927.52294921875, 71.50182976338674, -0.7021, -2.8397, -1.4478, 8.9757, -4.4140, -1.2671
40962.73681640625, 71.45172975522038, -6.7776, -3.5213, -2.2614, 2.9553, -4.7214, -2.2571
40994.90283203125, 71.40956310215472, -9.2448, -4.2132, -1.9288, 0.5171, -5.1424, -2.0354
41028.119873046875, 71.42577056337933, -9.5005, -5.5858, -2.4974, 0.2770, -6.3403, -2.5407
41063.133056640625, 71.44081375522127, -7.6583, -7.7075, -3.2538, 2.1198, -8.4460, -3.3713
41096.614013671875, 71.46766758379968, -3.0461, -9.6453, -2.7931, 6.7121, -10.5273, -3.2039
41128.8330078125, 71.44732573889658, 3.1938, -9.4980, -4.0700, 12.8624, -10.9185, -4.8891
41163.509033203125, 71.4175452490941, 13.9762, -9.1373, -3.1195, 23.4927, -11.1854, -4.3082
41195.357177734375, 71.44913322460984, 19.2905, -4.6485, -3.9749, 28.5905, -7.6342, -4.8498
41231.614013671875, 71.46212871032385, 15.5717, 2.9291, -2.1187, 24.4297, -1.2746, -2.3053
41263.914794921875, 71.61096629402373, 5.2698, 5.8427, 0.1315, 13.6815, 0.8347, 0.7088
41295.675048828125, 71.63670009807382, 0.1591, 6.2075, -1.5794, 8.3080, 0.8668, -0.4642
41329.36328125, 71.64493404093038, -2.7232, 6.9363, -3.2075, 5.2843, 1.4702, -1.7340
41365.367919921875, 71.67968053073, -6.3209, 9.5482, -4.0185, 1.6848, 4.1104, -2.4340
41396.73095703125, 71.72023547766607, -9.1435, 10.0283, -2.8440, -1.0460, 4.6777, -1.4400
41431.179931640625, 71.71973991032208, -10.6349, 10.3263, -0.6365, -2.4193, 5.1299, 0.6566
41463.955078125, 71.70453762461717, -8.4278, 9.2844, -0.1055, -0.0585, 4.3299, 1.1509
41497.97314453125, 71.6978424001286, -3.6032, 8.0045, 1.5081, 4.9919, 3.3790, 2.4565
41531.35400390625, 71.68508563278488, 2.9960, 5.0584, 3.4397, 11.9433, 1.0898, 4.0447
41563.97705078125, 71.61177836747913, 20.8378, -1.3491, 0.0250, 30.0275, -4.7320, 0.5508
41598.40185546875, 71.5088373062256, 17.7602, 0.0466, -1.0347, 27.0659, -3.0474, -0.9818
41631.045166015625, 71.45873926540607, 6.8538, -2.1905, 3.3951, 16.2396, -5.0121, 3.0553
41665.3369140625, 71.45435666949373, 1.6519, -3.3009, 2.4449, 11.1465, -5.7447, 2.2194
41700.06494140625, 71.51062307767077, -0.8917, -3.0600, 1.2194, 8.7080, -5.0588, 1.0757
41732.08203125, 71.46936300420538, -4.7839, -3.4249, 0.1378, 4.8647, -5.1760, 0.0456
41766.73193359375, 71.45035001644479, -8.7199, -3.5091, -1.2787, 0.9586, -5.0886, -1.2203
41800.0400390625, 71.47463993480766, -9.5523, -3.4595, -2.6195, 0.1362, -4.9523, -2.3435
41831.4287109375, 71.48331649807352, -10.1029, -4.7832, -3.5795, -0.4164, -6.2795, -3.2572
41866.3818359375, 71.50260896338602, -5.0408, -5.8647, -3.5114, 4.6296, -7.4787, -3.2910
41899.952880859375, 71.46039113481629, 1.9039, -6.7277, -5.4460, 11.5046, -8.7263, -5.3977
41932.97509765625, 71.44635427766994, 7.4677, -8.1525, -5.0680, 16.9682, -10.5776, -5.2446
41966.630126953125, 71.48229327359549, 17.7377, -7.5306, -3.6702, 27.0189, -10.6965, -3.7541
42000.102783203125, 71.46001698787659, 16.9132, 0.3617, -3.1677, 25.7764, -3.8276, -2.9170
42031.338134765625, 71.57103592668126, 11.6319, 2.4785, -0.3750, 20.0721, -2.4728, 0.2720
42067.201904296875, 71.64621699603828, 3.0288, 5.1411, 0.2730, 11.0419, -0.4106, 1.3405
42100.59814453125, 71.65523858786015, -1.0376, 6.1474, -1.0019, 6.7644, 0.3376, 0.2414
42135.379150390625, 71.68003242459093, -3.9170, 7.0935, -1.3356, 3.8526, 1.2462, -0.0654
42163.9140625, 71.70075914296143, -7.1245, 9.2843, -1.6486, 0.6831, 3.5015, -0.3174
42204.51806640625, 72.31652356737769, -7.3595, 10.1012, -2.5831, 0.6217, 4.5274, -1.3990
42232.98095703125, 72.37707127349334, -8.4591, 7.3243, 1.5981, -0.2794, 1.9589, 2.2866
42267.339111328125, 72.67561045715519, -7.9596, 6.6893, 2.3390, 0.3332, 1.4582, 2.5253
42300.916015625, 73.45401068573182, -2.8925, 6.6037, 2.3341, 5.6114, 1.7285, 2.0411
42334.9111328125, 72.57813862043075, 3.6737, 2.0898, 3.0548, 12.4223, -2.3237, 2.6643
42369.433837890625, 72.27477385311495, 17.4714, 0.6217, -2.2053, 26.3847, -3.4562, -2.5118
42400.998046875, 72.14522761638223, 13.7703, 0.6162, -1.7345, 22.7940, -3.1279, -2.5857
42435.871826171875, 71.92811733068166, 6.6501, -0.6093, 1.6045, 15.7643, -4.0924, 0.6197
42468.659912109375, 71.7821037062005, 2.5607, -2.8696, 2.2690, 11.8244, -6.0359, 1.6952
42503.908935546875, 71.72712577153258, -0.2491, -3.3123, 0.2044, 9.1280, -6.1755, 0.0030
42534.890869140625, 71.69141774705699, -3.4968, -3.7398, -1.8865, 5.9655, -6.3071, -2.0975
42569.43798828125, 71.59039359196039, -6.5630, -3.9660, -2.7388, 2.9643, -6.2519, -3.1574
42602.2900390625, 71.60245504502828, -7.7882, -4.2819, -2.1124, 1.7491, -6.5278, -2.5191
42637.31201171875, 71.63187014707509, -7.6663, -4.7368, -2.7387, 1.8533, -7.0422, -3.2218
42668.10498046875, 71.63238970627074, -6.1760, -5.0234, -0.9667, 3.2775, -7.5191, -1.7234
42703.0400390625, 71.61875773075624, -3.1178, -5.6567, -1.9826, 6.1953, -8.6208, -2.7892
42734.477783203125, 71.58725818789584, 5.0037, -8.0383, -3.5908, 14.1901, -11.4022, -4.2714
42772.739013671875, 71.58498306135851, 15.3847, -10.1544, -3.5515, 24.2040, -14.4382, -3.7484
42803.169189453125, 71.60531927361396, 15.2028, -4.5744, -4.9324, 23.3936, -9.9594, -4.6459
42836.822998046875, 71.68623202461333, 11.6240, 1.7163, -3.7113, 19.2132, -4.4565, -3.0242
42872.43115234375, 71.70521567356838, 4.3089, 6.5053, -2.3243, 11.2246, -0.2997, -0.8980
42903.755859375, 71.7421308000776, -0.8883, 8.2405, -2.7636, 5.5629, 1.1118, -0.8315
42940.163818359375, 72.64271038370926, -7.9020, 10.6533, -2.0618, -1.6156, 3.3577, -0.2107
42967.735107421875, 73.06997114288697, -9.6989, 12.0203, -1.5384, -3.3622, 4.7492, 0.2355
43006.676025390625, 73.04008820410745, -9.1809, 11.8738, 0.4491, -2.4488, 4.9743, 2.2508
43036.677001953125, 72.72815215512671, -7.2726, 11.2306, 0.3978, -0.3410, 4.5499, 2.2664
43072.961181640625, 72.82187798356112, -3.8107, 10.0055, 0.6091, 3.5699, 3.7828, 2.3339
43105.067138671875, 72.6099306530649, 2.1598, 5.3840, 3.4946, 10.3263, 0.0847, 4.6757
43137.153076171875, 72.28233844891697, 23.9329, 0.5673, -0.0519, 32.5148, -3.9531, 1.3928
43170.218017578125, 71.8784476407767, 21.7962, -2.8860, -0.5423, 30.5843, -7.0069, 0.8573
43208.14990234375, 71.50630120006261, 4.1182, -4.0831, 3.6699, 13.1383, -7.8412, 4.4978
43238.3330078125, 70.78068791845135, 0.7807, -3.1587, 2.8397, 9.8611, -6.7885, 3.5753
43275.432861328125, 70.71731288987839, -4.5146, -2.2043, 0.8133, 4.6953, -5.5035, 1.4938
43304.835205078125, 70.62928925717021, -6.3390, -1.7180, 0.0254, 2.9474, -4.8007, 0.6810
43338.9208984375, 70.65239181232056, -7.3036, -2.0216, -0.4591, 2.0191, -4.9991, 0.1682
43376.077880859375, 70.57508642452052, -8.5474, -1.8589, -1.7502, 0.8354, -4.6989, -1.4931
43405.1669921875, 70.68792242453914, -8.7850, -1.9344, -1.5383, 0.6090, -4.7485, -1.4862
43440.44287109375, 70.62007181226994, -6.5198, -3.8307, -1.4953, 2.8181, -6.7747, -2.0485
43473.56396484375, 70.71453203270522, -1.8252, -5.7054, -3.8598, 7.3692, -8.9726, -4.8388
43506.5400390625, 70.63339562451448, -0.3457, -6.8304, -3.9358, 8.7815, -10.2226, -5.1008
43541.14404296875, 70.70539408170309, 13.6906, -7.7187, -6.9269, 22.5423, -11.8821, -7.6221
43575.47607421875, 70.85683445722788, 16.6225, -5.6821, -6.9768, 25.0888, -10.6277, -7.1570
43608.43603515625, 70.76636994292835, 13.4201, -1.0217, -5.5013, 21.4110, -6.7051, -5.3828
43640.13427734375, 70.78749215514961, 8.4995, 4.2141, -5.0443, 15.8935, -2.2088, -4.5478
43676.4150390625, 71.19229034299914, 2.7994, 7.2510, -2.6832, 9.6741, 0.3564, -1.5107
43705.94482421875, 71.43644222868099, 2.0348, 7.5399, -2.5117, 8.7161, 0.5333, -0.9503
43742.474853515625, 71.57906846540229, -1.8221, 7.3878, -3.8196, 4.3477, 0.2252, -1.2118
43774.36083984375, 71.66502127355564, -3.9588, 7.7764, -3.9036, 2.1482, 0.6352, -1.0968
43810.1982421875, 72.4034632490057, -5.3172, 8.0952, -2.8806, 0.8692, 0.9973, -0.1384
43839.1640625, 72.43409903675906, -5.3677, 8.0949, -2.3977, 0.8811, 1.0256, 0.2762
43876.707763671875, 72.60470671022628, -1.9585, 8.1845, -2.7319, 4.4430, 1.2403, -0.0920
43908.919189453125, 72.58136113472193, -1.6221, 6.3512, -0.0295, 4.9909, -0.4133, 2.5552
43941.927001953125, 72.69638204902263, -1.7858, 1.2117, 3.8843, 5.3361, -5.0901, 6.2794
43975.14404296875, 72.57913614698872, 10.2636, -0.1359, -1.3094, 17.9451, -5.8939, 0.6930
44009.347900390625, 71.88061076732357, 10.9905, 3.6781, -3.2776, 19.0601, -1.6590, -1.6755
44040.279052734375, 71.4168105713961, 4.2938, 0.4620, 0.0972, 12.7756, -4.2482, 1.5263
44079.697021484375, 70.4325398204182, -0.2272, -2.8156, 2.4515, 8.5729, -6.8281, 4.0728
44107.41796875, 69.57730283273864, -1.1646, -2.2607, 0.2773, 7.8311, -5.6855, 2.1530
44146.19287109375, 69.00458353474053, -3.1916, -1.5911, -1.7456, 5.9912, -4.3736, 0.2804
44175.715087890625, 68.97186466941794, -5.0541, -2.0754, -2.1266, 4.3533, -4.2204, -0.3739
44213.14306640625, 68.70524786943025, -5.0164, -3.7432, -0.4975, 4.5244, -5.4920, 0.9459
44243.529052734375, 68.68985105309685, -2.4260, -3.2846, -2.8206, 7.1881, -4.7841, -1.5995
44275.154052734375, 68.69544596740002, 1.3049, -6.6612, -2.6076, 10.9798, -8.0345, -1.7829
44313.2041015625, 68.50484359197384, 6.8739, -11.4883, -4.4996, 16.5353, -12.9163, -3.6112
44343.798828125, 68.34771724093089, 15.3150, -12.7267, -5.5381, 24.8793, -14.4080, -4.1720
44378.0458984375, 68.76268899604275, 13.4415, -5.1713, -5.5549, 22.7364, -7.5477, -3.5231
44412.862060546875, 68.85263123269134, 7.7047, -3.2747, -3.5165, 16.6563, -6.2028, -0.7841
44445.677978515625, 69.05114425313427, 6.2498, -1.8659, -4.4143, 14.8458, -5.1396, -1.0141
44479.2568359375, 69.25237623673287, 3.2354, 2.8502, -5.8659, 11.5398, -0.7075, -2.0514
44511.18310546875, 70.1119760899146, -1.9920, 3.8861, -7.1269, 6.2661, 0.0127, -3.5253
44546.35205078125, 70.09904391031422, -6.5463, 7.5597, -8.2288, 1.7897, 3.3921, -5.1770
44578.62109375, 70.12963878379232, -12.4429, 9.8472, -5.7685, -3.9527, 5.6011, -3.3074
44612.8310546875, 70.02132493887761, -13.6279, 8.9119, -3.1871, -4.9243, 5.0139, -0.9016
44645.088134765625, 70.47215671026368, -10.5665, 5.7783, -2.7165, -1.6777, 2.3568, -0.3813
44680.5849609375, 70.14867897148648, -4.2860, 3.8531, -1.3067, 4.8780, 1.0910, 0.8290
44711.553955078125, 70.60360418777788, 5.8529, 2.9760, 2.0761, 15.3064, 1.1890, 3.9754
44745.609130859375, 70.48064188574557, 18.6802, 0.3972, 2.2071, 28.1928, -0.7057, 4.3200
44779.72119140625, 70.71760564905338, 13.5658, -1.6537, 6.0908, 23.1503, -1.9637, 8.1430
44814.659912109375, 71.02052798379809, 6.8130, -5.0634, 7.8154, 16.4145, -4.5277, 9.7375
44844.92724609375, 71.24071189402127, 4.7889, -7.3518, 2.7140, 14.3532, -6.1931, 4.5448
44883.3779296875, 71.15787017972477, -0.0298, -6.3106, -2.0098, 9.5452, -4.7229, -0.6071
44911.033935546875, 70.98649752662307, -5.8812, -7.4766, -0.5987, 3.7041, -5.6885, 0.4477
44950.47412109375, 71.10682435110819, -8.9630, -9.0809, 0.0922, 0.6431, -7.3116, 0.9647
44981.043212890625, 71.23686729806441, -6.2770, -9.7689, -0.8051, 3.3858, -8.2108, -0.1945
45014.84716796875, 71.2211341388902, -4.9828, -8.2922, -1.5361, 4.7724, -7.2947, -1.4313
45047.14404296875, 71.14752447358286, -3.2861, -6.7767, -1.9322, 6.5091, -6.4437, -2.2682
45077.4248046875, 71.18925085726553, 1.9696, -6.9954, -2.9031, 11.7267, -7.6351, -3.6519
45118.97216796875, 71.32605268586273, 9.1788, -7.7566, -2.6997, 18.8077, -9.5087, -3.3209
45144.98681640625, 71.4622834123611, 17.4712, -3.0355, -0.8970, 26.8327, -5.9207, -0.4414
45182.51318359375, 74.07068535514081, 16.1852, -1.2523, -2.9454, 25.1822, -4.9593, -1.7279
45215.48486328125, 96.19326739593276, 9.2542, 4.2756, -7.5615, 18.1044, 0.0937, -6.9652
45248.5859375, 76.07064983681698, -0.4890, 7.1073, -6.6283, 8.3490, 2.8696, -6.3092
45280.01611328125, 74.08728170614992, -4.6664, 5.3379, -4.1980, 4.2018, 1.2845, -3.1520
45317.219970703125, 80.94851693058678, -5.9599, 4.8625, -5.7313, 2.9916, 1.1283, -4.2831
45347.199951171875, 96.46762973059813, -8.2669, 7.0417, -4.3260, 0.8368, 3.5499, -3.2771
45383.72216796875, 92.82695537144166, -8.0803, 5.2018, -1.4072, 1.1217, 1.8492, -0.9023
45414.210205078125, 86.36330979597004, -9.4164, 3.3450, 1.3966, -0.1636, 0.1381, 0.8763
45451.543212890625, 76.55826947756229, -8.0352, 4.4021, 3.7942, 1.2228, 1.4844, 2.3993
45482.472900390625, 74.66865053882293, 1.3750, 0.6553, 3.5694, 10.7301, -1.7612, 1.8920
45514.994873046875, 74.02753312654926, 14.6086, 1.8701, -3.4348, 24.1020, -0.0649, -4.9518
45549.830078125, 73.79581408164472, 19.3632, 3.5614, -2.9035, 28.9252, 1.9291, -4.3434
45581.63818359375, 72.17149557546605, 8.1466, 0.1533, 3.3157, 17.7943, -1.1565, 2.1425
45617.358154296875, 72.02739446536587, 1.7817, -3.6367, 4.4839, 11.5330, -4.3772, 3.7529
45651.028076171875, 71.94463473478416, -0.5311, -4.0223, 0.7933, 9.2715, -4.1755, 0.5578
45682.865966796875, 71.71219351026076, -4.6096, -6.4756, -3.5514, 5.1854, -6.0400, -3.3561
45717.81103515625, 71.59077971433982, -8.1545, -10.3302, -4.4331, 1.6123, -9.4857, -4.1780
45751.0869140625, 71.52436592659136, -9.2492, -11.0834, -4.1533, 0.5149, -10.2002, -3.9250
45785.0458984375, 71.40891755923352, -5.8544, -10.4279, -5.3827, 3.9319, -9.7999, -5.4531
45819.37109375, 71.38463679188169, -3.6719, -11.1224, -2.5606, 6.1262, -11.1043, -2.9708
45851.773193359375, 70.60296635922073, 9.0019, -8.1292, -6.6694, 18.7530, -9.0622, -7.1343
45885.47119140625, 70.75169813879411, 18.0876, -1.9808, 0.6818, 27.6759, -4.0187, 0.9668
45919.031005859375, 70.80800334693866, 20.1439, -1.6345, -0.6767, 29.1650, -4.7570, 1.5687
45953.089111328125, 117.69951397556605, 12.0852, 8.1759, -5.3374, 20.9958, 4.4592, -3.6175
45985.81787109375, 119.61939510202401, -2.2411, 9.6247, -0.1787, 6.7092, 5.7027, 0.6467
46018.98193359375, 70.44878541228405, -6.1721, 7.5834, -0.3705, 2.8039, 3.8110, 0.8000
46050.481201171875, 78.04935404086481, -9.4658, 5.9288, -0.4896, -0.3941, 2.4389, 0.8127
46087.739990234375, 95.33119416326454, -12.8891, 6.7047, 0.4969, -3.6640, 3.5199, 1.4590
46118.47705078125, 89.43110719183454, -10.9075, 4.0439, 1.4126, -1.5727, 1.1149, 2.0853
46154.532958984375, 84.0854991020893, -7.0376, 1.3859, 3.2977, 2.3397, -1.4735, 3.5449
46182.799072265625, 81.2930135918721, 0.0115, 2.7211, 2.7445, 9.4025, -0.0958, 2.9582
46221.85107421875, 74.23297681633144, 11.4054, 1.0796, 1.5760, 20.8282, -1.5501, 2.2580
